time,seconds_elapsed,z,y,x
1715440474043302000,0.019302001953125,-0.3410556631505489,-0.6833179256118833,-0.18334643314871937
1715440474053351700,0.0293515625,-0.5433779783934355,-0.48484052229411895,-0.0338212402548641
1715440474063401700,0.039401611328125,-0.7134148115813732,-0.3212533401696011,-0.019006825221702457
1715440474073451800,0.04945166015625,-0.784359986898303,-0.34405173969399183,-0.1920262909496203
1715440474083501800,0.059501708984375,-0.9088771779268979,-0.3703514253376052,-0.3325339915860444
1715440474093551600,0.069551513671875,-1.1696914296269416,-0.3514243508212268,-0.5262190460607409
1715440474103600600,0.0796005859375,-1.418540518245101,-0.3394004067568108,-0.6590150398086756
1715440474113650700,0.089650634765625,-1.5958938119262456,-0.13987937613762913,-0.5220930521719157
1715440474123700700,0.09970068359375,-1.9291314948022364,0.18376812915951013,-0.31855113200619817
1715440474133750800,0.109750732421875,-2.4117297180622814,0.48496330842357127,-0.1604658717662096
1715440474143800800,0.11980078125,-2.6310616202950476,0.7228174306988716,-0.07015884724482893
1715440474153851000,0.129850830078125,-2.531031804791093,0.7988167476002126,-0.13642996633611618
1715440474163901000,0.13990087890625,-2.099506181642413,0.6058292104030027,-0.34623087383136153
1715440474173950700,0.14995068359375,-1.4437392569094896,0.354764674225077,-0.393733835295029
1715440474183999700,0.159999755859375,-0.7205144144535064,0.15597575727272778,-0.33727333160024137
1715440474194049800,0.1700498046875,-0.10071662872433662,0.006808291775360703,-0.28913013600427656
1715440474204099600,0.180099609375,0.2046855372428894,-0.05634542594775557,-0.3008210487220436
1715440474214149600,0.190149658203125,0.42662323805987834,-0.18578060149308293,-0.3929726781968027
1715440474224200200,0.2002001953125,0.6742775639355182,-0.2763822798457928,-0.5029885021967813
1715440474234250200,0.210250244140625,0.8928507567554712,-0.36293121220897884,-0.6118854417020455
1715440474244300300,0.22030029296875,0.9536989009499549,-0.4216210823910311,-0.5259735833996907
1715440474254350300,0.230350341796875,0.8600935655355453,-0.2504481030463241,-0.3011641630712896
1715440474264399400,0.2403994140625,0.7775883008062839,-0.07999330017464235,-0.13008326419051736
1715440474274449400,0.250449462890625,0.780258981320262,0.023102314374409613,-0.05927746081165969
1715440474284499500,0.26049951171875,0.7266811203896999,0.09868994520232081,-0.1847226168727502
1715440474294549200,0.27054931640625,0.641832507404685,0.04436502876412123,-0.46486521736644204
1715440474304599300,0.280599365234375,0.5404430939853191,0.08111271439231932,-0.5812046548973768
1715440474314649300,0.2906494140625,0.4401695328533649,0.20052169556170701,-0.5193632618818432
1715440474324699400,0.300699462890625,0.3470388292133808,0.28245617466568945,-0.497016624712944
1715440474334748200,0.310748046875,0.3691501232564449,0.26705665322095157,-0.49911608121022577
1715440474344798200,0.320798095703125,0.540937599503994,0.1574408248566091,-0.5482504067353904
1715440474354848500,0.3308486328125,0.8312626078486443,-0.05942762813838198,-0.6582188479296863
1715440474364898300,0.340898193359375,1.137685349035263,-0.21502993072252718,-0.6819483908243477
1715440474374948400,0.3509482421875,1.286964056354761,-0.3071314009126276,-0.5836410151988267
1715440474384998400,0.360998291015625,1.308915191400051,-0.2778461053206585,-0.39495716654490676
1715440474395048400,0.37104833984375,1.321905021354556,-0.24228717281930148,-0.3449630458526313
1715440474405098500,0.381098388671875,1.27204588868618,-0.25814170802254227,-0.4466287919953465
1715440474415148300,0.391148193359375,1.3230553604334592,-0.3060580725926906,-0.6308258871566503
1715440474425197300,0.401197265625,1.2977315340846776,-0.3379887498605996,-0.7425687176123261
1715440474435247400,0.411247314453125,1.0449398453205823,-0.30287642861558123,-0.6783386758945882
1715440474445297200,0.421297119140625,0.8172451884120703,-0.15808151564663275,-0.537734967537783
1715440474455347200,0.43134716796875,0.6354688175916672,-0.0697123090537265,-0.4282914635330438
1715440474465397200,0.441397216796875,0.5071534033238887,-0.024829521759506312,-0.3876340205825865
1715440474475447300,0.451447265625,0.39271044706404207,0.01652711896887049,-0.45212329775840043
1715440474485497300,0.461497314453125,0.4788695581257343,-0.07845699398545548,-0.4538018984951079
1715440474495546400,0.47154638671875,0.4839993222296238,-0.09377784243710338,-0.2972145486626774
1715440474505596400,0.481596435546875,0.3471270920187235,-0.09537687513157725,-0.23414439930347725
1715440474515646200,0.491646240234375,0.163197342556715,-0.15447064993940293,-0.1973649485638365
1715440474525696300,0.5016962890625,0.0225695592045784,-0.11336792004001327,-0.11827362959706224
1715440474535746300,0.511746337890625,-0.07593933034241199,-0.14300822134842164,-0.16361116578830406
1715440474545796400,0.52179638671875,-0.08610241243839263,-0.22336017136815933,-0.2413354981176555
1715440474555846100,0.53184619140625,0.0822521667510271,-0.40165038057323543,-0.32752843838371337
1715440474565896200,0.541896240234375,0.23302257393300532,-0.5734803077230229,-0.37939799755904824
1715440474575946200,0.5519462890625,0.1771136397063732,-0.6998788189861923,-0.4171273511683568
1715440474585995500,0.56199560546875,0.004721767824888229,-0.6932136620085686,-0.4064040779063478
1715440474596045300,0.57204541015625,-0.3438321421265602,-0.5580505372704938,-0.37739020140059293
1715440474606095400,0.582095458984375,-0.7857219229012727,-0.3913935923118144,-0.3515599598996341
1715440474616145400,0.5921455078125,-1.2196627904981374,-0.28105416238065806,-0.1877813468562439
1715440474626195500,0.602195556640625,-1.531949455282092,-0.03367673548394814,0.20787235058546066
1715440474636245200,0.612245361328125,-1.6321657332688568,0.06890151326064951,0.5007723239846528
1715440474646295300,0.62229541015625,-1.5371663131475448,0.043646304301824417,0.6105388859312981
1715440474656345300,0.632345458984375,-1.4678420170307158,0.07687054677791894,0.6320413273610175
1715440474666394000,0.64239404296875,-1.6148288140207527,0.27441002992475405,0.48526046473924067
1715440474676444400,0.6524443359375,-2.26508720446527,0.6945806395128369,0.2638294348027557
1715440474686494500,0.662494384765625,-3.270323984950781,1.2768755007997155,0.08612794873844831
1715440474696544500,0.67254443359375,-4.254455433565378,1.7602905934005975,-0.1225481194453314
1715440474706594300,0.68259423828125,-4.807646949964761,2.0014695857822895,-0.3736184643095359
1715440474716644400,0.692644287109375,-4.574264310547709,1.9758216420456767,-0.549428985528089
1715440474726694400,0.7026943359375,-3.6263042455106973,1.649927892191708,-0.6227112620230764
1715440474736744400,0.712744384765625,-2.210692181932926,1.2474047839045523,-0.4421824801109731
1715440474746793200,0.722793212890625,-0.7418892109155655,0.8096478651508688,-0.19646189877688883
1715440474756843300,0.73284326171875,0.3776847273677587,0.44000520913712676,0.07276811642777174
1715440474766893300,0.742893310546875,1.1626532015532254,0.18930263813938944,0.2804953959867358
1715440474776943000,0.752943115234375,1.7028174785971641,-0.013325368352071381,0.4162205019891262
1715440474786993200,0.7629931640625,2.00260589633584,-0.05536931549117435,0.6394067415624857
1715440474797043200,0.773043212890625,2.1262398747891185,0.020028112827148288,0.8461224694587289
1715440474807093500,0.783093505859375,2.079975551742315,0.132212476505246,0.8901188475735485
1715440474817143300,0.793143310546875,1.7894032906383275,0.3034464105232619,1.0173517273016273
1715440474827193300,0.803193359375,1.4131605787724255,0.5339298761663959,1.0821824383262544
1715440474837242400,0.813242431640625,0.8722393458813429,0.8071030760388821,1.0217859103567897
1715440474847292400,0.82329248046875,0.2964624881863594,1.057686294973269,0.7144521918050944
1715440474857342200,0.83334228515625,-0.010485738179087638,1.0745855534564703,0.20565474760122596
1715440474867392300,0.843392333984375,-0.06813304050564765,0.9515580164637416,-0.2939099541593343
1715440474877442300,0.8534423828125,0.05256897614896297,0.7709914598245173,-0.6713210522174835
1715440474887492400,0.863492431640625,0.16553133846223353,0.6216355956155807,-0.7760857872888446
1715440474897542100,0.873542236328125,0.16052315491139887,0.5936756486095488,-0.6199333948075771
1715440474907592200,0.88359228515625,0.09899579628109931,0.6218355021018535,-0.4168493379445746
1715440474917641500,0.893641357421875,0.13885843559205532,0.6093779523931443,-0.2966933743327856
1715440474927691300,0.903691162109375,0.3593517828196287,0.49421676486134525,-0.32847306229006495
1715440474937741300,0.9137412109375,0.5242378091156482,0.4149925676293671,-0.38363658497687425
1715440474947791400,0.923791259765625,0.6877127995699643,0.36061464236229657,-0.4405226206073537
1715440474957841400,0.93384130859375,0.9750129071354865,0.22989582021459937,-0.4809719372324645
1715440474967891200,0.94389111328125,1.376795718449354,0.0192521782848984,-0.41689997215326874
1715440474977941200,0.953941162109375,1.701161528083682,-0.1515980445120018,-0.23019794496633111
1715440474987991300,0.9639912109375,1.9749393062531946,-0.25226044969791545,-0.04689874849282205
1715440474998040300,0.974040283203125,2.1456997775405644,-0.32196170763466503,0.09063669486716389
1715440475008090400,0.98409033203125,2.122883550098538,-0.3300266849402338,0.17224208814725278
1715440475018140400,0.994140380859375,1.9704577769249676,-0.31770752078890796,0.17638978241123257
1715440475028190500,1.0041904296875,1.8535972381293773,-0.3649279755167663,0.14042944776844232
1715440475038240500,1.014240478515625,1.7243442507505415,-0.4422959504228085,0.23983415364399552
1715440475048290300,1.024290283203125,1.573461030843854,-0.46575445782374586,0.4492919467899948
1715440475058340400,1.03434033203125,1.3283680798888207,-0.41383064771052447,0.5967974338918924
1715440475068390400,1.044390380859375,1.143224278461933,-0.43350890592038627,0.6129608523812144
1715440475078439200,1.054439208984375,1.0682523318469523,-0.5440281859304755,0.6273022430751473
1715440475088489200,1.0644892578125,1.0294669663786888,-0.7224554655186831,0.6054677201468497
1715440475098539300,1.074539306640625,1.0752315232098102,-0.848075430157408,0.5677025280391798
1715440475108589300,1.08458935546875,1.1025959154754876,-0.9185210584543645,0.6462652291551232
1715440475118639000,1.09463916015625,1.0003384870499372,-0.9364634693149476,0.6546035800419747
1715440475128689400,1.104689453125,0.730507985201478,-0.9484478485539555,0.5971359451312571
1715440475138739500,1.114739501953125,0.29147827003300186,-0.8636141408771276,0.5333345771543682
1715440475148789500,1.12478955078125,-0.11002572433948517,-0.9057770199544727,0.3914000951178372
1715440475158838300,1.13483837890625,-0.45275078200697894,-0.8806522233091294,0.28624188548317175
1715440475168888300,1.144888427734375,-0.5629834270954132,-0.7944092333562671,0.2821568994581699
1715440475178938400,1.1549384765625,-0.43903848299682136,-0.7991545281872153,0.1997567390711978
1715440475188988200,1.16498828125,-0.2520031687349081,-0.8630579682990908,0.17089593423530458
1715440475199038200,1.1750380859375,-0.24657880559861658,-0.9033227586701512,0.2649701475367881
1715440475209088300,1.185088134765625,-0.517156910943985,-0.7418122732218354,0.37327377905771136
1715440475219138300,1.19513818359375,-1.0949907011687754,-0.46682424247972665,0.4932239544317126
1715440475229187800,1.205187744140625,-1.8245044146358966,-0.15800474234968423,0.4460808027237653
1715440475239236600,1.215236572265625,-2.531243986237049,0.0603158274160698,0.17302258926676586
1715440475249286700,1.22528662109375,-3.1110078677415847,0.2414393968835473,-0.2304306577436626
1715440475259336700,1.235336669921875,-3.5578579012721776,0.4527625089773908,-0.5483540132403374
1715440475269386800,1.24538671875,-3.8459301622539757,0.6792413968879729,-0.647931847193092
1715440475279436500,1.2554365234375,-3.826802267935872,0.8381967179607599,-0.5245440620532259
1715440475289486600,1.265486572265625,-3.527044829857349,0.8927289570067077,-0.16924420323921366
1715440475299536600,1.27553662109375,-3.113953273543715,0.941454555600509,0.11828169417250901
1715440475309586700,1.285586669921875,-2.6709634225726124,0.8525527217019349,0.17188330130483953
1715440475319635700,1.2956357421875,-2.099633022892475,0.5699886296823621,0.012292915465217083
1715440475329685800,1.305685791015625,-1.3625626104354858,0.2114925503766164,-0.24464254030641167
1715440475339735800,1.31573583984375,-0.5479571228772402,-0.14310137039143592,-0.4495138459123671
1715440475349785900,1.325785888671875,0.07784311813712119,-0.45268312359824775,-0.4118474745366722
1715440475359835600,1.335835693359375,0.5312649312734603,-0.562512046723999,-0.14206441029282285
1715440475369885700,1.3458857421875,0.8014163356393575,-0.6014764585535973,0.08934644499407149
1715440475379935700,1.355935791015625,0.9377350236207246,-0.608103475477919,0.2330358718059957
1715440475389985800,1.36598583984375,0.8654688288331032,-0.5114355376224965,0.2050169976869598
1715440475400034600,1.37603466796875,0.5266103834658861,-0.317950462699309,0.051885213402193035
1715440475410084600,1.386084716796875,0.0772024821460247,-0.03850399124361575,-0.07360591895878314
1715440475420134700,1.396134765625,-0.29407120913565155,0.21322123733274637,-0.12339605977786704
1715440475430184700,1.406184814453125,-0.4480395355761051,0.40736181702259927,-0.18682125138612463
1715440475440234800,1.41623486328125,-0.36655133893489833,0.4571171239903196,-0.3391608989125117
1715440475450284800,1.426284912109375,-0.1228472119897604,0.3663061685347929,-0.49446116807647045
1715440475460334800,1.4363349609375,0.12778992908895015,0.29818014229182155,-0.5891275568511337
1715440475470384600,1.446384521484375,0.3319470585435629,0.2263438268214464,-0.652509676502645
1715440475480433700,1.45643359375,0.45623277890384195,0.14621657980252056,-0.6876881035201251
1715440475490483700,1.466483642578125,0.6331780763059854,0.03618899229951203,-0.7148616493888199
1715440475500533500,1.476533447265625,0.8770271646797656,-0.10402197214635088,-0.733298565768078
1715440475510583600,1.48658349609375,1.161596385976672,-0.2145812188406475,-0.7508094533435999
1715440475520633600,1.496633544921875,1.3784206893026827,-0.35482634128443896,-0.714508890428394
1715440475530683600,1.50668359375,1.5246902779340743,-0.4327791303411126,-0.5806829325782135
1715440475540733700,1.516733642578125,1.6400678846955299,-0.4428746270935982,-0.4653181852983311
1715440475550783700,1.52678369140625,1.6497025590032337,-0.4770278027165681,-0.47491998024974014
1715440475560832800,1.536832763671875,1.5935849504619837,-0.5009297065034508,-0.5281624352134764
1715440475570882800,1.5468828125,1.6108628329992294,-0.5295061049073935,-0.5263311281330884
1715440475580932600,1.5569326171875,1.577041811940074,-0.5086438976099714,-0.4274304627895355
1715440475590982700,1.566982666015625,1.3352519941836596,-0.4603783908085897,-0.34134185968078673
1715440475601032700,1.57703271484375,0.9821206933140754,-0.40445813147034493,-0.2640497264899313
1715440475611082800,1.587082763671875,0.6430149951875209,-0.2837701433410868,-0.1709608526976779
1715440475621132500,1.597132568359375,0.27357787168323994,-0.09819646259695292,-0.09234653099235146
1715440475631182600,1.6071826171875,-0.06928805575966834,0.0720590822424274,-0.022569120813161134
1715440475641232000,1.61723193359375,-0.30929157462120055,0.17541162156146017,-0.02377765635270625
1715440475651281700,1.62728173828125,-0.31408874576985835,0.1683769919506274,-0.07513247093893587
1715440475661331700,1.637331787109375,-0.15169453628957272,0.1099220082366839,-0.1922544371496886
1715440475671381800,1.6473818359375,-0.015654080727696418,0.01632710288474336,-0.33189682619366795
1715440475681431800,1.657431884765625,-0.0164957922488451,-0.02475852974937297,-0.29166520743984725
1715440475691481600,1.667481689453125,-0.03501812188923359,-0.03026301805032417,-0.22930377260558304
1715440475701531600,1.67753173828125,-0.04428162479698658,-0.03716532651837915,-0.16813721011169253
1715440475711581700,1.687581787109375,0.047962359136343,-0.08433549409741535,-0.1566105845775455
1715440475721630700,1.697630615234375,0.1047001454025507,-0.16274992758277804,-0.1630144602704793
1715440475731680500,1.707680419921875,0.10125029720962048,-0.14515662242081015,-0.14526212862189858
1715440475741730800,1.717730712890625,0.09938801046907901,-0.12568183262748642,-0.15933737919293342
1715440475751780900,1.72778076171875,0.07395078687369823,-0.12877137787435203,-0.2279633177820593
1715440475761831000,1.737830810546875,0.10416589239537716,-0.18249580766875295,-0.3490987208852544
1715440475771880700,1.747880615234375,0.10609539915323257,-0.2631696009208448,-0.38439931297767904
1715440475781930800,1.7579306640625,-0.0192798700094223,-0.31466574194021524,-0.3258847262972966
1715440475791980800,1.767980712890625,-0.06724456723332405,-0.3244727040749043,-0.16621913806330413
1715440475802029600,1.778029541015625,-0.04741641569137573,-0.3769343108592555,0.09101035048514604
1715440475812079600,1.78807958984375,-0.05392506693303585,-0.3765084135973826,0.2953399869624525
1715440475822129700,1.798129638671875,-0.21830431275069712,-0.2780198361860588,0.35360439827404916
1715440475832179700,1.8081796875,-0.6372428415268659,-0.07048396927965804,0.28457057300377636
1715440475842229500,1.8182294921875,-1.4162141211241484,0.32550591958016156,0.1467676378140226
1715440475852279600,1.828279541015625,-2.265224567109346,0.77548811365664,-0.07571651790458708
1715440475862329600,1.83832958984375,-3.153144881725311,1.195815028051287,-0.2346088202111423
1715440475872378600,1.848378662109375,-3.947423036047816,1.512551511850953,-0.3729117773449048
1715440475882428700,1.8584287109375,-4.253659314751625,1.6157900602683424,-0.6014611879192292
1715440475892478700,1.868478759765625,-3.8944986705899236,1.498362535239756,-0.7412675718858838
1715440475902528800,1.87852880859375,-3.0345711092710492,1.2663368633896113,-0.7518214799303561
1715440475912578600,1.88857861328125,-2.0412346099376677,0.9715160779956727,-0.6507135138008743
1715440475922628600,1.898628662109375,-1.2909773836493492,0.7638388846561313,-0.43409916343111543
1715440475932678700,1.9086787109375,-0.7899690589517354,0.6476378326825797,-0.17375563451536
1715440475942728700,1.918728759765625,-0.34461949311196804,0.5559889650981873,0.024795162832178173
1715440475952777700,1.92877783203125,0.07780629325807094,0.4942975019473582,0.22841628571394829
1715440475962827800,1.938827880859375,0.47223523467779155,0.4859701108459383,0.4608662839233875
1715440475972877800,1.9488779296875,0.6726029087215661,0.5292637475188822,0.6032223523728549
1715440475982928000,1.958927978515625,0.6640647974789142,0.5567356187470257,0.6481764696039259
1715440475992977700,1.968977783203125,0.46832361419200896,0.5972663665778934,0.6528286793239414
1715440476003027700,1.97902783203125,0.1721779368698597,0.6472305670559406,0.7002946332454681
1715440476013077800,1.989077880859375,-0.006529109507799148,0.7293098614580928,0.7132588903672993
1715440476023127800,1.9991279296875,-0.03964695073366165,0.7271971070878207,0.6652049074247479
1715440476033176600,2.009176513671875,0.1588409009128809,0.6336139835052191,0.5857332017051056
1715440476043226600,2.0192265625,0.48766485899984835,0.4489300546750426,0.45292423887774347
1715440476053276700,2.029276611328125,0.8712520884096622,0.25026006966093556,0.3820098605578765
1715440476063326700,2.03932666015625,1.039077090767026,0.13233943648631682,0.42710444570556283
1715440476073376800,2.049376708984375,1.0636281791776419,0.0930977694847621,0.5117820860378444
1715440476083426800,2.0594267578125,1.018015598037839,0.10450428490373305,0.6025764556847513
1715440476093476900,2.069476806640625,0.9499860179066657,0.14163862262880428,0.6168491650566459
1715440476103526700,2.079526611328125,1.0055752186596394,0.12612537514390423,0.5378291486272588
1715440476113575700,2.08957568359375,1.155811372834444,0.08251803287928923,0.47831367780864237
1715440476123625700,2.099625732421875,1.405875097939372,-0.0084342307430692,0.436546848844178
1715440476133675500,2.109675537109375,1.6559481753945349,-0.13642656880263238,0.4205729615775868
1715440476143725600,2.1197255859375,1.9081617720097301,-0.2335861260998994,0.4580156072000041
1715440476153775600,2.129775634765625,2.1311866835415363,-0.3099325759384781,0.532836162645556
1715440476163825700,2.13982568359375,2.256151618337631,-0.38288704525120554,0.5620508224204183
1715440476173875700,2.149875732421875,2.32374105348587,-0.4901780473971739,0.5226384110949933
1715440476183925500,2.159925537109375,2.3100907137960194,-0.5606796071324497,0.5380978460334241
1715440476193974800,2.169974853515625,2.249437799912691,-0.5842360950151458,0.6771500506319105
1715440476204024800,2.18002490234375,2.200121103557944,-0.6104388230903074,0.8378984656665474
1715440476214074600,2.19007470703125,2.1110797150582075,-0.6268048880122602,0.9145679369144141
1715440476224124700,2.200124755859375,1.9917279439687727,-0.6421409888319671,0.9270767784189432
1715440476234175000,2.210175048828125,1.7725737363904714,-0.6274591141372918,0.9256392198964953
1715440476244225000,2.22022509765625,1.4420868135273455,-0.5843419300097972,0.8968776011187582
1715440476254275000,2.230275146484375,0.8665086932748556,-0.43148551033399996,0.8459829148575663
1715440476264325000,2.2403251953125,0.3463672135621309,-0.34203634475097056,0.6176514944154768
1715440476274374000,2.250373779296875,-0.0488771358937025,-0.34707623861432074,0.2836878718851134
1715440476284424200,2.260424072265625,-0.23930559972524643,-0.397678517800197,-0.025719577350851612
1715440476294474200,2.27047412109375,-0.24759996533989906,-0.4984173583563417,-0.2913994326431304
1715440476304524300,2.280524169921875,-0.1595844127565622,-0.5677476458225399,-0.4038735730480402
1715440476314574000,2.290573974609375,-0.10196516748070716,-0.613908946886286,-0.36858456179555504
1715440476324624100,2.3006240234375,-0.2525374217420816,-0.5765004957944154,-0.3316419015845284
1715440476334674200,2.310674072265625,-0.5488385818868875,-0.4664394809458404,-0.35923224809318777
1715440476344724200,2.32072412109375,-0.9544073414802551,-0.3623242958243936,-0.3425527698405087
1715440476354773000,2.33077294921875,-1.298544019511342,-0.3521513864541426,-0.41994281044788656
1715440476364823000,2.340822998046875,-1.6046125404328107,-0.36669648302663116,-0.5027075663635507
1715440476374873000,2.350873046875,-1.7739181367367505,-0.3944258361471817,-0.37245416977051643
1715440476384923000,2.3609228515625,-1.960333857795596,-0.22673903668411075,-0.21916651907060294
1715440476394973000,2.370972900390625,-2.1474019052833317,-0.07874137301794253,-0.08893564483663066
1715440476405023000,2.38102294921875,-2.4883944400697944,0.14869234966575168,-0.03934341947613284
1715440476415073300,2.3910732421875,-2.9485289025872943,0.4942006539767608,-0.20368341099563986
1715440476425123000,2.401123046875,-3.362704162484407,0.7991961023066192,-0.44593079979382455
1715440476435172000,2.411172119140625,-3.8071138171255585,0.9957846962030976,-0.5205971875909715
1715440476445222100,2.42122216796875,-3.965570102635026,1.1911582882866263,-0.3282408244367689
1715440476455272000,2.43127197265625,-3.6127503519326445,1.1851608745027333,0.042922154745738954
1715440476465322000,2.441322021484375,-2.818488564223051,1.1172013639330862,0.4395362033858895
1715440476475372000,2.4513720703125,-1.6712351763755082,0.9310801688414067,0.7487165727175772
1715440476485422000,2.461422119140625,-0.6609779373794794,0.6054343658665194,0.7993766465052962
1715440476495471900,2.471471923828125,0.12490998973846434,0.22901030608434228,0.5706755159679799
1715440476505522000,2.48152197265625,0.642373190152645,-0.12978912181584162,0.359946606907621
1715440476515571200,2.4915712890625,1.1442302406340836,-0.3923394583271816,0.10606566160209477
1715440476525621200,2.501621337890625,1.3917957191824912,-0.49295971400495614,-0.10527653878470881
1715440476535671000,2.511671142578125,1.5757254686444997,-0.5065446237757801,-0.1471825570241548
1715440476545721000,2.52172119140625,1.4909160186260937,-0.4549274684589356,-0.130398175358586
1715440476555771100,2.531771240234375,1.255768123102188,-0.28729530352624133,-0.0616383447241038
1715440476565821200,2.5418212890625,0.877899271339178,-0.056656035400042305,0.003587914089905098
1715440476575871000,2.55187109375,0.4268231445461511,0.1744850265021436,-0.15513842966575175
1715440476585920000,2.561919921875,0.18661328945755956,0.2282287272525951,-0.482040224051103
1715440476595970000,2.571969970703125,0.16746610591709613,0.18868633287195116,-0.7443723329681903
1715440476606020000,2.58202001953125,0.361298240712285,0.13269859778806567,-0.9480679093256592
1715440476616070100,2.592070068359375,0.7216437107443809,-0.004526354850642383,-1.0435310014359653
1715440476626120200,2.6021201171875,1.0642378355085849,-0.07325734298313036,-0.888660319328308
1715440476636170200,2.612170166015625,1.1193109034329651,-0.06210504892040044,-0.845252920082584
1715440476646220000,2.622219970703125,0.9586059622138738,-0.07233365226695314,-0.9073127050891518
1715440476656270000,2.63227001953125,0.7472545373409986,-0.06042312371544539,-0.8252573760844767
1715440476666320100,2.642320068359375,0.5641758517503738,0.007592647086083888,-0.7298829851709305
1715440476676369000,2.652368896484375,0.5387848053842783,-0.0015899908714927732,-0.7261267013773322
1715440476686419000,2.6624189453125,0.593672579869628,-0.01328061132831499,-0.7596979123938828
1715440476696469000,2.672468994140625,0.7130500699222088,-0.06470363231254742,-0.7644547515321523
1715440476706519000,2.68251904296875,0.8971417319476604,-0.17717822937518357,-0.6813386614281683
1715440476716569000,2.692569091796875,1.031919035705924,-0.19672148129483683,-0.5116793197831139
1715440476726619000,2.702618896484375,1.0612731404840945,-0.21954795613624153,-0.3303236220601946
1715440476736669200,2.712669189453125,0.9180115014970303,-0.21775376619584857,-0.23619667392447588
1715440476746718200,2.72271826171875,0.5369616816103459,-0.08328094354318455,-0.18231672477480024
1715440476756768000,2.73276806640625,0.1835357817083597,0.0722277259407565,-0.30195388867687434
1715440476766818000,2.742818115234375,-0.11126549526751041,0.14925329888360575,-0.40558176520541306
1715440476776868000,2.7528681640625,-0.29043840559124945,0.15383878177665172,-0.4172922228738665
1715440476786918100,2.762918212890625,-0.35447219408452507,0.1379470198355615,-0.3714737804310396
1715440476796968000,2.772968017578125,-0.2988344780147075,0.07809577772393822,-0.3286026434864849
1715440476807018000,2.78301806640625,-0.0437666610121727,-0.06340632251100614,-0.20405151365566998
1715440476817068000,2.793068115234375,0.22070435962975024,-0.18241265942994503,0.0023754786933772266
1715440476827118000,2.8031181640625,0.40706279754340646,-0.2944919187657535,0.038327100306749344
1715440476837167000,2.8131669921875,0.3550035244822502,-0.3532057178126648,0.03577350683379918
1715440476847217200,2.823217041015625,0.09606792613565922,-0.3104381508404389,0.07410053407531231
1715440476857267200,2.83326708984375,-0.23180209222733972,-0.2338752087069675,0.1640215914864093
1715440476867317000,2.84331689453125,-0.5194920758932828,-0.17684603827875106,0.22513309932481496
1715440476877367000,2.853366943359375,-0.6027484512507915,-0.2123619901549071,0.023108853713050482
1715440476887417000,2.8634169921875,-0.6558095948308705,-0.27431389434020964,-0.22287520086281
1715440476897467100,2.873467041015625,-0.6587210983633994,-0.2548257884075865,-0.36282344098556785
1715440476907516000,2.883515869140625,-0.6679062753379345,-0.16509923065528273,-0.27696669213762504
1715440476917566000,2.89356591796875,-0.7101485032618046,0.0009102010469418018,0.03071943831462413
1715440476927616000,2.903615966796875,-0.7604325833439827,0.06864275272660889,0.2224528655312024
1715440476937666300,2.913666259765625,-0.8505746265619992,0.05643097620620392,0.26298319323696195
1715440476947716000,2.923716064453125,-0.9520452885240316,-0.0010236348261591047,0.24381215389687566
1715440476957766100,2.93376611328125,-1.0248667791068553,-0.07164679338079877,0.18452822681181133
1715440476967816200,2.943816162109375,-1.0924462773829697,-0.16439583162628113,0.16327007899936288
1715440476977866200,2.9538662109375,-1.1457914986014366,-0.21696409538919104,0.1589137469533831
1715440476987915000,2.9639150390625,-1.1336872193098066,-0.18741360952239483,0.1273953768134117
1715440476997965000,2.973965087890625,-1.2420143230378626,-0.03693619393762201,0.12059702191017567
1715440477008015000,2.98401513671875,-1.6274188310027122,0.3016997677853331,0.199453554873541
1715440477018065000,2.99406494140625,-2.245985613632202,0.7346607209667563,0.15882394977807998
1715440477028115000,3.004114990234375,-2.8354572346806526,0.9982008904993533,-0.10143577331174164
1715440477038165000,3.0141650390625,-3.1784856592088935,1.1243993856783956,-0.39845322849974035
1715440477048215000,3.024215087890625,-3.036955374059081,1.0496210619393735,-0.6607349224038421
1715440477058265000,3.03426513671875,-2.4522283171892165,0.8456625968620181,-0.750030358729884
1715440477068314000,3.044314208984375,-1.6349603324234485,0.6360779624659567,-0.6938057096175849
1715440477078364200,3.0543642578125,-0.8513613930255174,0.3914324630174786,-0.60875192944929
1715440477088414000,3.0644140625,-0.16241875939965247,0.19267463532313703,-0.44140404308438297
1715440477098464000,3.074464111328125,0.46413551485240456,0.06781393721965141,-0.18931268460936843
1715440477108514000,3.08451416015625,0.8937988512605428,0.03331045488824602,0.10310392571967095
1715440477118564000,3.094564208984375,1.0073971733897924,0.13806213411521165,0.4032541990406811
1715440477128614100,3.1046142578125,0.7939280257105827,0.33744963801521805,0.6093281949672847
1715440477138664000,3.114663818359375,0.3477145365178585,0.5630444000350311,0.633940731241554
1715440477148714000,3.1247138671875,0.007469020706415176,0.6479167226891964,0.49844088536240155
1715440477158763300,3.13476318359375,-0.2531090841501951,0.5839844948742539,0.37323074363358316
1715440477168813000,3.14481298828125,-0.3041828533053398,0.5576921522868797,0.389529259744659
1715440477178863000,3.154863037109375,-0.11691606837511062,0.5560474903523922,0.5839937741592526
1715440477188913200,3.1649130859375,0.07302315063476562,0.5576571540387347,0.7437715175308287
1715440477198963200,3.174963134765625,0.30846856780052184,0.5298663165219127,0.7729885519258678
1715440477209013000,3.185012939453125,0.5648632494926452,0.4699494983607903,0.6953931249395012
1715440477219063000,3.19506298828125,0.9711346043974161,0.32354736939091233,0.5462457889147102
1715440477229112600,3.205112548828125,1.3716045795470475,0.12628029171098024,0.530327686955966
1715440477239161900,3.215161865234375,1.8031711192280053,-0.022754377719573674,0.4693242426019162
1715440477249212000,3.2252119140625,2.1958920876860617,-0.25877204181533303,0.20998916007634252
1715440477259262000,3.235261962890625,2.4486136338233946,-0.4424804036116227,-0.030937172718532382
1715440477269311700,3.245311767578125,2.626190799388289,-0.606183467200771,-0.2373429944153875
1715440477279361800,3.25536181640625,2.688103357943892,-0.6997844917662441,-0.27562486734092234
1715440477289411800,3.265411865234375,2.426698739135265,-0.6603406623892486,-0.1335588678792119
1715440477299462000,3.2754619140625,1.998497876495123,-0.5297719162367284,0.0635487449226901
1715440477309511700,3.28551171875,1.7071692440658808,-0.4016582350861281,0.17496588708795607
1715440477319560700,3.295560791015625,1.446073252815008,-0.35832857725173234,0.18310064169410614
1715440477329610800,3.30561083984375,1.2038713471263647,-0.3391821608962491,0.18443718752749264
1715440477339660500,3.31566064453125,0.9019909255445003,-0.30256376420352604,0.12847582899387924
1715440477349710600,3.325710693359375,0.6752192286998033,-0.25615393173880874,0.11734008420715107
1715440477359760600,3.3357607421875,0.500263643810153,-0.19908322372380644,0.20159071303270756
1715440477369811000,3.34581103515625,0.41859307633936405,-0.15433043775111435,0.27370690489038824
1715440477379860700,3.35586083984375,0.45855099271833893,-0.19312245215587318,0.34219401953071354
1715440477389910800,3.365910888671875,0.42494566023647784,-0.24489015839193015,0.4607314420299604
1715440477399959800,3.375959716796875,0.38687107338607307,-0.31452348392531276,0.5190773210799321
1715440477410009600,3.386009521484375,0.2686684723317623,-0.3801234988220036,0.43347178878039117
1715440477420059600,3.3960595703125,-0.03393500282764435,-0.36930977079756555,0.24208918429547918
1715440477430109700,3.406109619140625,-0.33466742341816424,-0.3780560448981821,0.04161258825082332
1715440477440159700,3.41615966796875,-0.4712742806911468,-0.43360308700986205,-0.1413446629172191
1715440477450209500,3.42620947265625,-0.49389995399713515,-0.5680906140413134,-0.25078440406229346
1715440477460259600,3.436259521484375,-0.4441600637942552,-0.6897135449331253,-0.24279316784637048
1715440477470309600,3.4463095703125,-0.30418168426156045,-0.7235560471717268,-0.23390008741989732
1715440477480359000,3.45635888671875,-0.45697804431319233,-0.6630247869066893,-0.22640421523917464
1715440477490408700,3.46640869140625,-0.8910568590760231,-0.4366561179049313,-0.2865405031035654
1715440477500458800,3.476458740234375,-1.4427549220472573,-0.251311387078464,-0.4664155886135995
1715440477510508800,3.4865087890625,-2.009806621494889,-0.18176307294741273,-0.7287960667170584
1715440477520558800,3.496558837890625,-2.395286532783508,-0.14714403337836265,-0.935807854950428
1715440477530608600,3.506608642578125,-2.4628455727934835,-0.13666245991773904,-1.051025814170763
1715440477540658700,3.51665869140625,-2.1636749946922063,-0.20794453903883695,-1.0676865146577357
1715440477550708700,3.526708740234375,-1.7703075450241565,-0.32170031675212085,-0.9334037894833832
1715440477560757800,3.5367578125,-1.3845295275717973,-0.4330159347716719,-0.6939609732445329
1715440477570807800,3.546807861328125,-1.0551742390871048,-0.44883645810745654,-0.3922378976488486
1715440477580857900,3.55685791015625,-0.978119056457281,-0.20100275707691906,-0.02244574102866463
1715440477590908000,3.566907958984375,-1.2758622321039437,0.25995865778401495,0.2748426126557402
1715440477600957700,3.576957763671875,-1.8181068225532768,0.6912602629184722,0.33756570214293896
1715440477611007700,3.5870078125,-2.1930390363425016,0.9746135325543582,0.10958868462909012
1715440477621057800,3.597057861328125,-2.0344646774113175,0.9828234347559511,-0.2593822461355477
1715440477631107800,3.60710791015625,-1.4086562530905007,0.7439663825158029,-0.43268633749112484
1715440477641156600,3.617156494140625,-0.5604898567140102,0.4303480307366699,-0.3225579930273816
1715440477651206700,3.62720654296875,0.1755757626146078,0.14521474581621585,-0.010791214798530563
1715440477661256700,3.637256591796875,0.6731009213715792,-0.0788375360019505,0.32181941308714446
1715440477671306800,3.647306640625,0.9404279159665108,-0.24756423643939196,0.4726067714039236
1715440477681356500,3.6573564453125,1.134943941372633,-0.40602585571110245,0.3460246106695384
1715440477691406800,3.66740673828125,1.2587778263121843,-0.5119917102005332,0.18382358567379414
1715440477701457000,3.677456787109375,1.2620932344704865,-0.4629819609031081,0.16437011266313492
1715440477711507000,3.6875068359375,1.108212586313486,-0.32972492551468313,0.20555368011323735
1715440477721555700,3.6975556640625,0.9970926369965076,-0.1737820841308683,0.3626327041864395
1715440477731605800,3.707605712890625,0.7337187639415264,-0.0009157996706664562,0.4401039933364838
1715440477741655800,3.71765576171875,0.32156828787028785,0.16369857007712124,0.2924883238583803
1715440477751705600,3.72770556640625,0.07185936755239963,0.3156538761947304,0.05278607123205438
1715440477761755600,3.737755615234375,0.06050853697657585,0.37344562849327917,-0.11967051818240433
1715440477771805700,3.7478056640625,0.16881693600416184,0.38125725209228695,-0.22749871421130372
1715440477781855700,3.757855712890625,0.3034866877347231,0.3731420059042051,-0.2416050905729644
1715440477791905500,3.767905517578125,0.4144371257036924,0.3516530815431848,-0.22075415358822792
1715440477801955600,3.77795556640625,0.5462959116667508,0.3486977023363113,-0.2794275475595146
1715440477812004900,3.7880048828125,0.7361416071742772,0.2143123935703188,-0.39890360261574387
1715440477822054700,3.7980546875,0.9421645305007695,0.057962140429392454,-0.5310207472540438
1715440477832104700,3.808104736328125,1.1225830569714308,-0.007631079400330781,-0.5558871852241456
1715440477842154800,3.81815478515625,1.2868676102429628,-0.0704111415054649,-0.5174636753382161
1715440477852204800,3.828204833984375,1.4882301405429839,-0.22621976205036043,-0.42067656808253373
1715440477862254600,3.838254638671875,1.6318787330210207,-0.354564694673568,-0.3555265985082835
1715440477872304600,3.8483046875,1.716206537002325,-0.37528343837969,-0.36197756474595516
1715440477882354700,3.858354736328125,1.696064497205615,-0.34458844038657843,-0.3376781495414674
1715440477892404000,3.868404052734375,1.5658599081903695,-0.2728696503486484,-0.26010120805986225
1715440477902453800,3.878453857421875,1.3062339894920587,-0.19160583704784512,-0.2427417481863871
1715440477912503800,3.88850390625,1.0609528224885463,-0.1315890291109681,-0.2578399851296097
1715440477922553900,3.898553955078125,0.7961427791506052,-0.054794250982999795,-0.21201726837046442
1715440477932604000,3.90860400390625,0.5435445671319962,0.07031060374043882,-0.2771145579094067
1715440477942653700,3.91865380859375,0.3288753960132599,0.13060440198779105,-0.38740258644688874
1715440477952703700,3.928703857421875,0.20980244186520575,0.17221410416178404,-0.4116325531443581
1715440477962753800,3.93875390625,0.09158639680743216,0.2425107524421066,-0.3304621172154322
1715440477972802600,3.948802490234375,-0.008810498443245888,0.2314786324266344,-0.2874312596645206
1715440477982852600,3.9588525390625,-0.08545710027217865,0.16625227314792573,-0.3564958453992382
1715440477992902700,3.968902587890625,-0.0784223793298006,0.05337042872495949,-0.46374856136143205
1715440478002952700,3.97895263671875,-0.05437105713486671,-0.042788244434073565,-0.5891372745275497
1715440478013002800,3.989002685546875,-0.04828559974133968,-0.10066080688387155,-0.7278169194865971
1715440478023052800,3.999052734375,-0.04660626835227012,-0.1063994236011058,-0.7622342990037053
1715440478033102800,4.009102783203125,-0.03370060954988002,-0.06900507409982383,-0.6556799771018326
1715440478043153000,4.01915283203125,-0.032583588218688966,-0.06101056821458041,-0.510326699597761
1715440478053201700,4.02920166015625,-0.11019698925316333,0.05843333813771605,-0.3095646924741566
1715440478063251700,4.039251708984375,-0.2336462587893009,0.20835786908008158,0.024177944249287247
1715440478073301800,4.0493017578125,-0.5399275456786156,0.41498825678043066,0.3530181228186935
1715440478083351800,4.059351806640625,-0.9628460840016603,0.6242644097492098,0.5693062734413892
1715440478093401600,4.069401611328125,-1.3077613451898098,0.7095983950983733,0.5990800649363547
1715440478103451600,4.07945166015625,-1.5245412248522043,0.7262681556746363,0.48230150533579286
1715440478113501700,4.089501708984375,-1.654700221160054,0.7109778667580335,0.39279834454320367
1715440478123551700,4.0995517578125,-1.8644617464929818,0.7918887749679386,0.42536308193095024
1715440478133600800,4.109600830078125,-2.286561954170465,1.0176905308019368,0.45793402986377474
1715440478143650800,4.11965087890625,-2.6686265040576456,1.2211290636584162,0.3172703714806586
1715440478153700900,4.129700927734375,-3.011733254519105,1.3591158309824765,0.09485591999739408
1715440478163750700,4.139750732421875,-3.230802121901512,1.4714805196635423,-0.05414926761034876
1715440478173800700,4.14980078125,-3.309440189808607,1.5268594386667012,-0.06057170187328011
1715440478183850800,4.159850830078125,-3.1790830405801533,1.4979200521692633,-0.02035433084052056
1715440478193900800,4.16990087890625,-2.789177714064717,1.3315056472621858,0.017612082927674053
1715440478203950600,4.17995068359375,-2.132315395310521,1.0651051198624073,0.09191416745707393
1715440478214000600,4.190000732421875,-1.3356027073174714,0.7589929059296846,0.15458448557741938
1715440478224050000,4.2000498046875,-0.41678865726590153,0.37953736949712036,0.17740074955206364
1715440478234099700,4.210099609375,0.4317950877398252,0.004670439496450126,0.29916871493775393
1715440478244149800,4.220149658203125,1.2587836715310812,-0.31369181887414305,0.4252900532273575
1715440478254199800,4.23019970703125,1.850281829971075,-0.5308207677025347,0.4482367386486381
1715440478264249900,4.240249755859375,2.14248198453784,-0.6130680390827358,0.41655718659758567
1715440478274299600,4.250299560546875,2.030769330024719,-0.4650502916097641,0.3881083966286853
1715440478284349700,4.260349609375,1.4965940642625093,-0.17359185878839342,0.3305484437920153
1715440478294399700,4.270399658203125,0.8543839557170867,0.15183799988087265,0.2554237360344268
1715440478304448500,4.280448486328125,0.2436293081432581,0.4899423389451578,0.12402217405326664
1715440478314498600,4.29049853515625,-0.17999533262252806,0.6216154296103864,-0.06652010714998469
1715440478324548600,4.300548583984375,-0.3563362343907356,0.6276362242698669,-0.1438493392145261
1715440478334598700,4.3105986328125,-0.3639344344347715,0.6795067698258906,-0.07064780893870629
1715440478344648700,4.320648681640625,-0.31707857523560523,0.6944029448583722,0.09953720968142152
1715440478354698800,4.33069873046875,-0.28004151473939415,0.6865781695168465,0.24241686361357567
1715440478364748800,4.340748779296875,-0.09329612333476543,0.5938458540773018,0.28817736532408744
1715440478374798800,4.350798828125,0.2802975353270769,0.38715774484034626,0.2629000997970812
1715440478384847600,4.36084765625,0.6642734717935324,0.13012860116958616,0.31705574234928935
1715440478394897700,4.370897705078125,0.9277794467955827,0.008942344661988318,0.545628095407784
1715440478404947700,4.38094775390625,1.2292325828760862,-0.07554828519821166,0.7074608716130256
1715440478414997500,4.39099755859375,1.5285995603322982,-0.20298804914262145,0.7943805187184363
1715440478425047600,4.401047607421875,1.8396563910603523,-0.3695624303843826,0.7801121932607143
1715440478435097600,4.41109765625,2.082784179422259,-0.5803536640912295,0.6705773942433297
1715440478445147600,4.421147705078125,2.2315122671216723,-0.761320252898708,0.6428576126687229
1715440478455197700,4.43119775390625,2.3050509660631415,-0.8714482685688882,0.6730049136511981
1715440478465247700,4.441247802734375,2.282821598598361,-0.9147572489414364,0.7643802249912172
1715440478475296800,4.451296875,2.250287694740295,-0.9332557593148201,0.8618242617856711
1715440478485346800,4.461346923828125,2.1217945858180522,-0.931874314893782,0.9669267043787986
1715440478495396600,4.471396728515625,1.912166331475973,-0.895803469081223,1.0448030671983957
1715440478505446700,4.48144677734375,1.5924176602482796,-0.8567397981282323,1.0060410095404833
1715440478515496700,4.49149658203125,1.1819096906870603,-0.8159165701568126,0.905296762156859
1715440478525546800,4.501546630859375,0.9386398635059594,-0.804293717706576,0.80597392587848
1715440478535596500,4.511596435546875,0.7829822688043117,-0.8141036755159496,0.6771494661100208
1715440478545646600,4.521646484375,0.5731874257236719,-0.779968254745379,0.5327786968372762
1715440478555695900,4.53169580078125,0.29902035597562787,-0.7245403089687228,0.39005898270718753
1715440478565745700,4.54174560546875,0.03536649693548679,-0.7137639172799884,0.2561631379585713
1715440478575795700,4.551795654296875,-0.13844634765982627,-0.7597568760395049,0.20459221466993913
1715440478585845800,4.561845703125,-0.1787128915965557,-0.8427481707200407,0.21769171554399652
1715440478595895800,4.571895751953125,-0.12209200970828532,-0.9298675051160156,0.27356419021775946
1715440478605945600,4.581945556640625,-0.030983167284727095,-1.100005752851814,0.302022405602131
1715440478615995600,4.59199560546875,-0.006794482445716858,-1.3074550557196138,0.2668946858585812
1715440478626045700,4.602045654296875,-0.06377893694937228,-1.4256946277834475,0.26927637509703634
1715440478636094700,4.6120947265625,-0.24620412706732747,-1.4378697803542018,0.437044861494191
1715440478646144500,4.62214453125,-0.5898872161120176,-1.3111166469670832,0.7062329372532665
1715440478656194600,4.632194580078125,-0.9439508293956518,-1.1332752775080501,0.8498144558444619
1715440478666244900,4.642244873046875,-1.3448515971779822,-0.9508120934672654,0.8501203799884766
1715440478676295000,4.652294921875,-1.8723218123435974,-0.7046599157828837,0.6665092680215835
1715440478686344700,4.6623447265625,-2.3103706997811795,-0.5535643682997673,0.2834470123339444
1715440478696394800,4.672394775390625,-2.5228286245912313,-0.5472460519984365,-0.16806016282010822
1715440478706444800,4.68244482421875,-2.4495927079886197,-0.6683686321526765,-0.5958148160627111
1715440478716493600,4.69249365234375,-2.337880637997389,-0.7658113537728786,-0.7793599866539239
1715440478726543600,4.702543701171875,-2.2093226471453904,-0.7534915320344269,-0.7456865573719144
1715440478736593700,4.71259375,-2.092316562399268,-0.7870499566346406,-0.6573111585002392
1715440478746643700,4.722643798828125,-1.9913836605757473,-0.8183812797699123,-0.6522710454411804
1715440478756693500,4.732693603515625,-1.9462796134799718,-0.8004611538063734,-0.7156945200163871
1715440478766743600,4.74274365234375,-2.00338915566802,-0.6472620581727474,-0.7197689298484474
1715440478776793600,4.752793701171875,-2.1145523596048355,-0.40063963262811303,-0.6772343679144978
1715440478786844000,4.762843994140625,-2.221839014369249,-0.20859536763038486,-0.7217066199127584
1715440478796893700,4.772893798828125,-2.2796306936025617,-0.05617341211540624,-0.6889794585049152
1715440478806942700,4.782942626953125,-2.245862864035368,0.08411185967568308,-0.5196037926394492
1715440478816992800,4.79299267578125,-1.8865572584450243,0.164747549407091,-0.400283695329912
1715440478827042600,4.80304248046875,-1.2880296397596598,0.07773936550170182,-0.32169027028214187
1715440478837092600,4.813092529296875,-0.7423328630298376,-0.07705485383626073,-0.26626678148489447
1715440478847142700,4.823142578125,-0.2877846762120724,-0.21738825735170392,-0.2962385797699913
1715440478857192700,4.833192626953125,0.04298924689888954,-0.3535454711610451,-0.45594040836114436
1715440478867242800,4.84324267578125,0.2847065839409828,-0.464996552128531,-0.6781999980762601
1715440478877292500,4.85329248046875,0.4293991325139999,-0.4563943992063403,-0.8065013107534498
1715440478887341800,4.863341796875,0.41243104657828805,-0.3319257965598255,-0.808117806039378
1715440478897391900,4.873391845703125,0.3231394827097654,-0.1296837434789166,-0.7212941666543483
1715440478907441700,4.883441650390625,0.22903321203589438,0.09478289129380137,-0.6511217292755842
1715440478917491700,4.89349169921875,0.04976385560035705,0.32162294066697356,-0.5783422512035816
1715440478927541800,4.903541748046875,-0.20591654034256934,0.5879716648142784,-0.527788012410514
1715440478937591800,4.913591796875,-0.3099941699326038,0.7564796079345047,-0.67188475051485
1715440478947641600,4.9236416015625,-0.1181581773906946,0.7541820715818554,-0.8752405735239386
1715440478957691600,4.933691650390625,0.27499592178761956,0.6694853612229228,-0.9690861474350094
1715440478967741700,4.94374169921875,0.7499316475957631,0.5390501783221959,-0.951454190763086
1715440478977790700,4.953790771484375,1.1592530377209185,0.41523200240842995,-0.8641193139202892
1715440478987840800,4.9638408203125,1.4340268411904573,0.3525987283628434,-0.7475392725665122
1715440478997890800,4.973890869140625,1.589831735408306,0.31103461889624595,-0.6514747804969548
1715440479007940900,4.98394091796875,1.701611025416851,0.24019012747481464,-0.567155744343996
1715440479017990700,4.99399072265625,1.8058727794021368,0.173281879523769,-0.5431369727117941
1715440479028040700,5.004040771484375,1.8923884488165377,0.031894144649803634,-0.5939159601714462
1715440479038090800,5.0140908203125,2.087361570340395,-0.1611241164792329,-0.6388958694308996
1715440479048140800,5.024140869140625,2.185322178354859,-0.2734803295928985,-0.5447650488376617
1715440479058189600,5.034189453125,2.244712524956465,-0.2241314114689827,-0.33139289525952187
1715440479068239600,5.044239501953125,2.1446546524018046,-0.07062398053854703,-0.1203521803036332
1715440479078289700,5.05428955078125,1.913628805243969,0.06204312613271176,-0.007153890342637896
1715440479088339700,5.064339599609375,1.4798527728199957,0.22752353812530635,-0.04862082304507494
1715440479098389500,5.074389404296875,1.017580713751912,0.41158926199190315,-0.2047261615142226
1715440479108439800,5.084439697265625,0.6713140379548073,0.5129265798978507,-0.37084826894383877
1715440479118489900,5.09448974609375,0.41372576256394383,0.5204805754739791,-0.5120486280195414
1715440479128540000,5.104539794921875,0.35671734266281124,0.5113825653262436,-0.6181362822577356
1715440479138588700,5.114588623046875,0.49219256555736063,0.4179224836014211,-0.6508212850242853
1715440479148638700,5.124638671875,0.6763888570010662,0.3205336841255426,-0.5800685635395347
1715440479158688800,5.134688720703125,0.7925088065624236,0.248924199680984,-0.5003056928535923
1715440479168738600,5.144738525390625,0.8318266714721918,0.15794818985685705,-0.4096882872087881
1715440479178788600,5.15478857421875,0.766537914481759,0.11726539326943457,-0.32687490637842564
1715440479188838700,5.164838623046875,0.5890384903281927,0.11444251786842942,-0.2828425801673904
1715440479198888700,5.174888671875,0.2555810272216797,0.13521394160985944,-0.2937554942499846
1715440479208938500,5.1849384765625,-0.07506897724866866,0.18853980054073036,-0.3842073340695351
1715440479218988500,5.194988525390625,-0.3200730808764696,0.21498298630826174,-0.48925410095266997
1715440479229038000,5.2050380859375,-0.6242945126265287,0.2966082533326,-0.4494382964581251
1715440479239088000,5.215088134765625,-1.0918962422847747,0.48129283974990245,-0.32346652270704507
1715440479249138200,5.22513818359375,-1.7292156561791896,0.7617246689811349,-0.13649528665728866
1715440479259188200,5.235188232421875,-2.3554718242675063,1.0224710430767388,0.04013013114072382
1715440479269238000,5.245238037109375,-2.7439620232880113,1.088544301508367,0.23021095057837665
1715440479279288000,5.2552880859375,-2.691556713268161,1.075134419510886,0.5179879549406469
1715440479289338000,5.265338134765625,-2.191169150817394,0.9770763424713164,0.7917705554157495
1715440479299388200,5.27538818359375,-1.4949240852236747,0.7381642721083015,0.9035340633332729
1715440479309437000,5.28543701171875,-0.92299162799716,0.4564038976870477,0.8761974358573555
1715440479319487000,5.295487060546875,-0.6080196696519852,0.32578429813012477,0.8301147529877722
1715440479329537300,5.305537353515625,-0.49197921506762504,0.37621662757657465,0.811792475964129
1715440479339587000,5.315587158203125,-0.7088631396263837,0.5918401402780786,0.7863724957644939
1715440479349637000,5.32563720703125,-1.4244085334956644,0.9260213510818779,0.739931281780824
1715440479359687200,5.335687255859375,-2.3687638520389793,1.3376593475863336,0.6781541861731558
1715440479369737200,5.3457373046875,-2.9246213727772234,1.6245843382291494,0.4117144592741504
1715440479379787000,5.355787109375,-2.9450258629024026,1.5794130711160599,0.010543350117839871
1715440479389837000,5.365837158203125,-2.4543670827835795,1.3717676611542702,-0.25499902608264235
1715440479399886000,5.375885986328125,-1.647524045920372,1.0385327547572551,-0.24466888032406567
1715440479409936000,5.385935791015625,-0.8094044117838144,0.6860793531492352,0.03918115985281765
1715440479419986000,5.39598583984375,-0.0016594576448202133,0.41423415047749873,0.3603448489775881
1715440479430036000,5.406035888671875,0.6777928785800933,0.14330229979101566,0.6520870671764015
1715440479440086000,5.4160859375,1.175768703714013,-0.08959142359793186,0.9045832801252603
1715440479450136000,5.426135986328125,1.4066232859581709,-0.09573390840832144,1.2271486162088812
1715440479460186000,5.43618603515625,1.3347750243216752,0.10546583254542201,1.5449956915989518
1715440479470236200,5.446236083984375,0.9812211141258478,0.44421760266777127,1.6719506311684846
1715440479480285200,5.45628515625,0.5659820243895054,0.7555358242783695,1.4739436949066818
1715440479490335000,5.4663349609375,0.24123510648310184,0.9044974284727125,1.0231963616766035
1715440479500385000,5.476385009765625,0.07710077533721924,0.9571762216717005,0.5151893737306819
1715440479510435000,5.48643505859375,-0.07980185098946094,0.8680877791598439,0.2388672813732177
1715440479520485000,5.496485107421875,-0.15700257956981659,0.8987088351339101,0.48033919228687877
1715440479530535000,5.506534912109375,-0.0028349311649799344,0.9743385150052607,0.833821936942637
1715440479540585000,5.5165849609375,0.24185002351105211,0.8703250366926193,1.0776420184176414
1715440479550635000,5.526635009765625,0.5775181484043598,0.7368375535491853,1.1822267938122153
1715440479560685000,5.53668505859375,1.0539888286948202,0.48800271265208717,1.0304389532160014
1715440479570734000,5.546734130859375,1.5313789619177578,0.20796737192515283,0.8359452857721597
1715440479580784000,5.5567841796875,1.969345431768894,-0.01931990975886583,0.7193757658123969
1715440479590834200,5.566834228515625,2.263792488479614,-0.22917547005079686,0.6074823844375088
1715440479600884000,5.576884033203125,2.3326550123035905,-0.4018394003393128,0.5127065439390018
1715440479610934000,5.58693408203125,2.3275246636778113,-0.5344052751258015,0.4042186236260459
1715440479620984000,5.596984130859375,2.3857968199044466,-0.7248517130054533,0.30878687650207426
1715440479631034000,5.6070341796875,2.494785017889738,-0.9177680481299757,0.2319172795722261
1715440479641084000,5.617083984375,2.5689865646541117,-1.0746841915253549,0.11355325914481654
1715440479651134000,5.627134033203125,2.574347799426317,-1.2092729139089584,-0.030501356850843875
1715440479661183200,5.637183349609375,2.481962945717573,-1.2779342160724103,-0.15309077642094343
1715440479671233300,5.6472333984375,2.2775655777662993,-1.2860406578995287,-0.1857938263008371
1715440479681283000,5.657282958984375,1.9399428116738795,-1.2235557793486862,-0.1751319461035542
1715440479691333000,5.6673330078125,1.55138656167984,-1.1548370479095726,-0.11079343904266133
1715440479701383200,5.677383056640625,1.2586831337660551,-1.1001091401610523,0.04988717145277187
1715440479711433200,5.68743310546875,1.156654253399372,-1.0724971298098565,0.16315794212808832
1715440479721483000,5.69748291015625,1.0797399405449628,-1.059731025608629,0.11810540602384134
1715440479731533000,5.707532958984375,0.7832990796685219,-0.9819038356930017,0.06741413338026031
1715440479741582000,5.71758203125,0.3006055793404579,-0.9075815120931714,-0.07981938664615154
1715440479751632000,5.7276318359375,-0.19583529131114483,-0.8752554057668894,-0.23270307792136444
1715440479761682000,5.737681884765625,-0.6217676244974136,-0.8137249053314328,-0.2617563913883641
1715440479771732000,5.74773193359375,-0.8469833240717649,-0.8337222759604453,-0.1921572603855282
1715440479781782300,5.7577822265625,-1.0454419496238232,-0.852664000056684,-0.06638697315645403
1715440479791832000,5.76783203125,-1.0961749425172804,-0.828408533591777,0.0685294285452459
1715440479801882000,5.777882080078125,-1.25776017370224,-0.8670084594905376,0.10310366999134421
1715440479811932200,5.78793212890625,-1.3936457309633492,-0.8512094903994352,0.14192495615635997
1715440479821982200,5.797982177734375,-1.6331220110803841,-0.723307260042429,0.2140828225981444
1715440479832031000,5.808031005859375,-1.872040657314658,-0.6282915463734418,0.25375070652198045
1715440479842081000,5.8180810546875,-2.2412492327600715,-0.5149668535538018,0.19832825890434905
1715440479852131000,5.828131103515625,-2.617725753381848,-0.4242088338619098,0.08156741762356833
1715440479862181000,5.83818115234375,-2.784185312604904,-0.4514291049491614,-0.04188664681869559
1715440479872231000,5.84823095703125,-2.753853302705288,-0.5408212796479464,-0.19693364447448403
1715440479882281000,5.858281005859375,-2.547757898664474,-0.7224854222655296,-0.3900993877828121
1715440479892331000,5.8683310546875,-2.3834388586014508,-0.8546618958756327,-0.4825437165938318
1715440479902381000,5.878381103515625,-2.3454507809907197,-0.8308238511051982,-0.501207354401052
1715440479912431000,5.88843115234375,-2.5311516317784784,-0.5770802319111302,-0.3897799465700984
1715440479922480000,5.898480224609375,-3.001656681662798,-0.0660778889409732,-0.1594830347413197
1715440479932530200,5.9085302734375,-3.3738977566719055,0.40475123266540464,-0.01607656218977645
1715440479942580000,5.918580078125,-3.571905715847015,0.6405191597837955,-0.10266204543737693
1715440479952630000,5.928630126953125,-3.4332606307446953,0.7311343734715133,-0.23851958218039943
1715440479962680000,5.93868017578125,-2.858033808147907,0.6819870423343032,-0.35122692855298515
1715440479972730000,5.948730224609375,-1.9720652121216058,0.5116720497921109,-0.44147038631886243
1715440479982780000,5.95877978515625,-1.0052133996099233,0.28848644953956826,-0.43388584947399794
1715440479992830000,5.968829833984375,-0.22291619046032426,0.0475488646983169,-0.37039460689220577
1715440480002879200,5.978879150390625,0.5407108050107956,-0.22552471072459593,-0.32922892215866595
1715440480012929000,5.988928955078125,1.2153338213831186,-0.5202470955116674,-0.23323108385084196
1715440480022979000,5.99897900390625,1.713615935987234,-0.7046320779278874,-0.15871721973428501
1715440480033029000,6.009029052734375,1.9557810167968273,-0.7560278455790131,-0.11228132124654948
1715440480043079200,6.0190791015625,1.9315315416812895,-0.6309476869054138,-0.031173063833639023
1715440480053129000,6.02912890625,1.8241963716000318,-0.4155312776159495,0.029718408045917747
1715440480063179000,6.039178955078125,1.5913438935369253,-0.2089143339190632,-0.10643633981170132
1715440480073229000,6.04922900390625,1.3901543817162514,-0.05918342585265636,-0.36947380225285886
1715440480083279000,6.059279052734375,1.2859697846204041,0.04748272239323705,-0.5545562288813293
1715440480093328000,6.069327880859375,1.1334709462106227,0.2045877759568393,-0.6234614958684891
1715440480103378200,6.079378173828125,1.002147582298517,0.4187126841310411,-0.61783693398498
1715440480113428200,6.08942822265625,0.8455278645664454,0.5557633761813864,-0.7335023447118699
1715440480123478300,6.099478271484375,0.8231693177640438,0.48585357179418204,-1.0835977850168943
1715440480133528000,6.109528076171875,0.8389882336646318,0.31958712399043143,-1.4998589112773537
1715440480143578000,6.119578125,1.0012971029490232,0.1308295525131747,-1.7982549978747964
1715440480153628200,6.129628173828125,1.1486024643689394,-0.028116270078904926,-1.800387333728373
1715440480163678200,6.13967822265625,1.366258542343974,-0.11024393366742878,-1.4977315438598393
1715440480173728000,6.14972802734375,1.4683511355966328,-0.1448107681252062,-1.1461951109662651
1715440480183777000,6.159777099609375,1.4180658864706754,-0.20826657406743615,-0.9664895550705492
1715440480193827000,6.1698271484375,1.256118836236,-0.36035007314197715,-0.9714347563877701
1715440480203876900,6.179876953125,1.0057055670410393,-0.4699692625071853,-0.9593512276232242
1715440480213927000,6.189927001953125,0.9304220702588558,-0.47066341878380624,-0.7963608058154582
1715440480223977200,6.199977294921875,0.9608265608727932,-0.411923316251859,-0.44557749284412707
1715440480234027300,6.21002734375,0.8583312320381402,-0.32733269661590453,-0.03038542058728635
1715440480244077300,6.220077392578125,0.734314391747117,-0.31416703517045824,0.07885730014834552
1715440480254127000,6.230127197265625,0.6177449448525906,-0.3085872622767463,-0.004336129508167505
1715440480264176000,6.240176025390625,0.38086043479442594,-0.20972013387661426,-0.09200681417658925
1715440480274226200,6.25022607421875,0.19310031338930128,-0.1105200837276876,-0.08479282767716795
1715440480284276000,6.26027587890625,-0.0018546879559755325,0.0100682799519971,0.05223934233579784
1715440480294326000,6.270325927734375,-0.21819266906976698,0.15402272350881246,0.1845471141753718
1715440480304376000,6.2803759765625,-0.4687573294341564,0.22324622613228856,0.14787377242501823
1715440480314426000,6.290426025390625,-0.5890139404088258,0.16307769823241977,-0.024858802652917802
1715440480324476000,6.300475830078125,-0.6373270126789808,0.053240263006649906,-0.16071882361397147
1715440480334526000,6.31052587890625,-0.674395637357235,0.019383987971022722,-0.20119396880008278
1715440480344576000,6.320575927734375,-0.6315004984825849,0.0028392785465344785,-0.1547255380159244
1715440480354625300,6.330625244140625,-0.5522235481500626,-0.0018011676704511046,-0.06375486195404083
1715440480364675000,6.340675048828125,-0.5746025532186031,0.05762118150461465,0.0032713498208671804
1715440480374725000,6.35072509765625,-0.6879752498984336,0.20297204785589126,0.07730619824882597
1715440480384775200,6.360775146484375,-0.8181219712466001,0.32035858328696337,0.16770038959700614
1715440480394825200,6.3708251953125,-0.8327730124115943,0.3468918950233608,0.20445841395612804
1715440480404875000,6.380875,-0.8340484391748905,0.3490031880889088,0.15116696875151245
1715440480414925000,6.390925048828125,-0.9283698139041662,0.36228147959597407,0.12402845766358077
1715440480424975000,6.40097509765625,-1.2337433382987975,0.4403368522442877,0.2580094599450007
1715440480435025200,6.411025146484375,-1.510117562702298,0.5331496855741367,0.39755543940979987
1715440480445074200,6.42107421875,-1.6321476130902766,0.5301043995941057,0.3440948847159743
1715440480455124200,6.431124267578125,-1.644237863856554,0.3890247808212414,0.2835574504384771
1715440480465174300,6.44117431640625,-1.596851843303442,0.272333716841042,0.39871516737155616
1715440480475224000,6.45122412109375,-1.5056260965019463,0.22076694000456482,0.5863033297432586
1715440480485274000,6.461274169921875,-1.4821996282070875,0.12294230639468878,0.6398004170551895
1715440480495324200,6.47132421875,-1.6504665291130542,0.08096420929972081,0.47822271158955987
1715440480505374200,6.481374267578125,-1.8840537511914968,0.1725957969557494,0.30761476398278026
1715440480515424000,6.491424072265625,-2.128124373361468,0.3636818479131907,0.20623685833811758
1715440480525474000,6.50147412109375,-2.5419758081316948,0.6755440767399966,0.14234602197948842
1715440480535523000,6.511523193359375,-2.7238269977539775,0.8829870959974825,-0.020483455379214137
1715440480545573000,6.521572998046875,-2.464486325737834,0.8506338824685662,-0.34672128769680854
1715440480555623200,6.531623046875,-1.7871786003261803,0.6459143698908388,-0.6597147855758667
1715440480565673200,6.541673095703125,-0.9017056788623332,0.4219616394570097,-0.776899003367871
1715440480575723300,6.55172314453125,-0.1208773732215166,0.2500954719500616,-0.7078017209399491
1715440480585773300,6.561773193359375,0.5563450119942427,0.18842253083661198,-0.4221302374895662
1715440480595823000,6.571822998046875,1.1208335829555989,0.25001469833143053,-0.050889315966330465
1715440480605873200,6.581873046875,1.4418191025018692,0.3948512584850192,0.2552013437217101
1715440480615923200,6.591923095703125,1.4685586408674716,0.6479479946102946,0.4605152419960126
1715440480625972000,6.601971923828125,1.185130990821123,0.9965963779121637,0.5554335597051308
1715440480636022000,6.61202197265625,0.4306687140583992,1.449178817614913,0.6201117470491677
1715440480646072000,6.622072021484375,-0.3270540258049965,1.9368769943624733,0.641794367351383
1715440480656122000,6.6321220703125,-0.7197644728690386,2.218490726854652,0.43921259745471175
1715440480666172000,6.642171875,-0.7190402502477169,2.1592285366773605,0.04995504905721172
1715440480676222200,6.65222216796875,-0.3144301065534353,1.8019602821335194,-0.23447350339367984
1715440480686272300,6.662272216796875,0.28128011662364005,1.467508255031705,-0.12884024185948073
1715440480696322300,6.672322265625,0.8737479968786239,1.2447773580104111,0.2838006480772048
1715440480706371000,6.68237109375,1.2557786444962025,1.1228851817231624,0.7298139385227114
1715440480716421000,6.692421142578125,1.4941946019053458,0.9828020997069775,0.9808211550228297
1715440480726471200,6.70247119140625,1.622476698425412,0.7833411652445793,0.9976203871976583
1715440480736521000,6.71252099609375,1.6661878298580646,0.6523554357890039,0.8478710666917264
1715440480746571000,6.722571044921875,1.815866934671998,0.5516343500852584,0.7281304424151778
1715440480756621000,6.73262109375,2.1178683522850275,0.414284492425248,0.713936351237446
1715440480766671000,6.742671142578125,2.5245418582499024,0.18127616621330378,0.6942141442880034
1715440480776721000,6.752720947265625,2.758313789245486,-0.05615428728982806,0.6892278072427958
1715440480786771000,6.76277099609375,2.9934774668604134,-0.2551274382352829,0.693700057286024
1715440480796820200,6.7728203125,3.1247289345800873,-0.46392399099357423,0.6726847417861223
1715440480806870300,6.782870361328125,3.115892717173695,-0.6157767135195433,0.604090221248567
1715440480816920000,6.792920166015625,2.9124785150408745,-0.7383825910340994,0.4957400289058685
1715440480826970000,6.80297021484375,2.6840964603900908,-0.8471507895931601,0.3707355658169836
1715440480837020200,6.813020263671875,2.484734163996577,-0.9447675526060163,0.2842245725777
1715440480847070200,6.8230703125,2.246582410481572,-1.033694886272028,0.21652384080840273
1715440480857120000,6.8331201171875,1.8638924221724271,-1.0439534646317363,0.17368189342571422
1715440480867170000,6.843170166015625,1.463815245732665,-1.0103049505952746,0.15640733535671605
1715440480877220000,6.85322021484375,1.0911188281714916,-0.9914481283035129,0.12468235499504952
1715440480887269000,6.86326904296875,0.7326257080078125,-1.0017790412470697,0.08120757133523002
1715440480897319200,6.873319091796875,0.46413609937429423,-1.0222878685295582,0.06898753844313323
1715440480907369200,6.883369140625,0.1511585297167301,-1.0592403925474732,0.06323324923273176
1715440480917419300,6.893419189453125,-0.14660335063040256,-1.1223458872146903,0.011548627303401008
1715440480927469000,6.903468994140625,-0.3775023565381765,-1.1890507946133613,-0.05678847527382895
1715440480937519000,6.91351904296875,-0.6264221723049879,-1.2616897682361303,-0.09704475354487076
1715440480947569200,6.923569091796875,-0.9484779514312743,-1.3489879663303495,-0.12112431545360013
1715440480957619200,6.933619140625,-1.2150409759163856,-1.4620380069270729,-0.19066976177413014
1715440480967669000,6.9436689453125,-1.3659130899071692,-1.5924641297385096,-0.24100491445641964
1715440480977718000,6.953718017578125,-1.4125205273032189,-1.6594439085558055,-0.22804851184748112
1715440480987768000,6.96376806640625,-1.356683489269018,-1.733486611496657,-0.1826024281146936
1715440480997818000,6.973818115234375,-1.334650521159172,-1.7333035100147127,-0.00022259324211627244
1715440481007868200,6.9838681640625,-1.406536776718497,-1.6302593151256441,0.22189621802913023
1715440481017918200,6.993918212890625,-1.6162585545629262,-1.5100576492086053,0.3623926848854869
1715440481027968300,7.00396826171875,-1.9217647654265164,-1.3798669425882397,0.461857304254733
1715440481038018300,7.014018310546875,-2.2342747175723314,-1.229169454512,0.4592042324626818
1715440481048068000,7.024068115234375,-2.4265251361340283,-1.145456859819591,0.3341682051917538
1715440481058118100,7.0341181640625,-2.6290865208297967,-1.093506161699444,0.22809052435830235
1715440481068167200,7.044167236328125,-2.7728677997767925,-0.9539704113677143,0.21924537472678346
1715440481078217000,7.054217041015625,-2.981054038617015,-0.6657415715847164,0.2476657605851069
1715440481088267000,7.06426708984375,-3.37338513097465,-0.2805718952890485,0.23883168033687396
1715440481098317000,7.074317138671875,-4.008234939885139,0.1219241605944,0.12834462209595365
1715440481108367000,7.0843671875,-4.611743854114413,0.4921112074168399,-0.022584391447529197
1715440481118417200,7.094417236328125,-4.80544973218143,0.7059113040834665,-0.25384545386703683
1715440481128467200,7.10446728515625,-4.394971573236584,0.7434529531009495,-0.39413200429975986
1715440481138517200,7.114517333984375,-3.362098013284802,0.640058775730431,-0.39572979488521814
1715440481148567300,7.1245673828125,-2.181001392546296,0.39523919835668053,-0.4015115200918168
1715440481158616000,7.134615966796875,-1.2168471485555172,0.08863653402589261,-0.5475886548910289
1715440481168666000,7.144666015625,-0.46335167099833485,-0.19141382160708306,-0.6802779733940959
1715440481178716200,7.154716064453125,0.2384042669713497,-0.4348645583130419,-0.7639734708212316
1715440481188766000,7.164765869140625,0.9385697208791971,-0.6396067941792309,-0.774739194985479
1715440481198816000,7.17481591796875,1.4503151281684636,-0.7588844771191477,-0.6137906542688608
1715440481208866000,7.184865966796875,1.719854538115859,-0.7526764893244952,-0.4409829315954819
1715440481218916000,7.194916015625,1.736430409863591,-0.6177849115367978,-0.3745040149724111
1715440481228966000,7.2049658203125,1.4153408454209566,-0.34237931296974417,-0.3541609727108851
1715440481239016200,7.21501611328125,0.9862971022158861,-0.0016549276001751423,-0.3735920877592638
1715440481249065500,7.2250654296875,0.6742752258479595,0.2939430527113378,-0.4920000386599451
1715440481259115300,7.235115234375,0.6537474016040563,0.47744084049686786,-0.7182270341686904
1715440481269165300,7.245165283203125,0.8073106543749571,0.5513645932331681,-0.8453104954887181
1715440481279215400,7.25521533203125,0.7988888629883527,0.6861630859099328,-0.8076303878486156
1715440481289265400,7.265265380859375,0.7654454430699348,0.7222281595688312,-0.9273721081037074
1715440481299315200,7.275315185546875,0.783354609248042,0.6648067749526352,-1.216513386556506
1715440481309365200,7.285365234375,0.9835118554115295,0.5719597105596215,-1.4640030233897268
1715440481319415300,7.295415283203125,1.1939724689245224,0.5100028744708747,-1.5148700179263948
1715440481329465300,7.30546533203125,1.261905602943897,0.5641585352893919,-1.3827023121446371
1715440481339514400,7.315514404296875,1.2712556150913237,0.5975600888274609,-1.3398919289439917
1715440481349564400,7.325564453125,1.3362848443627358,0.5210862132169306,-1.4736261533901094
1715440481359614500,7.335614501953125,1.4375526772290468,0.411513639472425,-1.6126402179352939
1715440481369664500,7.34566455078125,1.3697434618502855,0.48368309588730335,-1.4818331329822538
1715440481379714300,7.35571435546875,1.3530986165195702,0.5672561359785497,-1.203343304664269
1715440481389764400,7.365764404296875,1.4439502693116664,0.5946896479576825,-0.9708800451144576
1715440481399814400,7.375814453125,1.554273515293002,0.5942942188993096,-0.8189779304888098
1715440481409864400,7.385864501953125,1.555450157856941,0.5783312183529138,-0.7246486647140234
1715440481419914200,7.395914306640625,1.4621277310371399,0.5641786282293498,-0.652349225243926
1715440481429963300,7.40596337890625,1.3277642687767743,0.558561811260879,-0.5936921613529325
1715440481440013300,7.416013427734375,1.1308347524881361,0.6133002404034137,-0.4763867283340543
1715440481450063000,7.42606298828125,0.9660235449939966,0.6955505074582994,-0.3329995632711798
1715440481460113400,7.436113525390625,0.8930740441173315,0.7521762116521596,-0.3275312879279256
1715440481470163500,7.44616357421875,0.8706909473955631,0.740541595698893,-0.4395552734125405
1715440481480213500,7.456213623046875,0.9339192647248507,0.6484449112817645,-0.6172721397090702
1715440481490263300,7.46626318359375,0.986246833333373,0.5186030180990696,-0.830488993127644
1715440481500313300,7.476313232421875,0.9575824643850326,0.4180439180240035,-0.9398732046931981
1715440481510363400,7.48636328125,0.8293833699733019,0.38854426729530095,-0.8816605235688387
1715440481520412200,7.496412109375,0.6537000553309917,0.41408495126515626,-0.6890846724450588
1715440481530462200,7.506462158203125,0.5389484715133905,0.42272944549173114,-0.5206831123087555
1715440481540512300,7.51651220703125,0.6380757852196693,0.2988442687563598,-0.49474334601871667
1715440481550562300,7.526562255859375,0.7774871785193681,0.1077178857885301,-0.46899252642951905
1715440481560612000,7.536612060546875,0.6996551662981509,0.013463146554678678,-0.19951500273719427
1715440481570662100,7.546662109375,0.4055348573237657,0.06853066152110696,0.17713534008152781
1715440481580712200,7.556712158203125,-0.1192524023681879,0.171607589635998,0.4222445115189999
1715440481590762500,7.566762451171875,-0.6777168907344341,0.1879682111978531,0.5165339567400514
1715440481600812500,7.5768125,-1.1975526654988526,0.24348916902020573,0.5728046369511633
1715440481610861300,7.586861328125,-1.638288015541434,0.31905484374463555,0.6709096949376165
1715440481620911400,7.596911376953125,-2.0374697044461962,0.36067331374697387,0.7277317984864116
1715440481630961400,7.60696142578125,-2.3071792102634907,0.36126536135599013,0.7373354200687259
1715440481641011200,7.61701123046875,-2.328275189784169,0.3056974225867539,0.7305542354959994
1715440481651061200,7.627061279296875,-2.294270044329762,0.3287177212335169,0.6709370213359594
1715440481661111300,7.637111328125,-2.4027847795844077,0.5158547423042357,0.5854469686422497
1715440481671161300,7.647161376953125,-2.680711494126916,0.8146680314004421,0.6181087366636843
1715440481681211100,7.657211181640625,-3.104067254823446,1.150586843119189,0.628427155451849
1715440481691261200,7.66726123046875,-3.523486845114827,1.4517442841887473,0.5709726357510313
1715440481701310500,7.677310546875,-3.7782016108959913,1.6402099235147236,0.4136301201697439
1715440481711360300,7.6873603515625,-3.8444402159571647,1.6417100989446043,0.183811749105528
1715440481721410300,7.697410400390625,-3.4456332055836913,1.4701795200675725,-0.03147979169525206
1715440481731460400,7.70746044921875,-2.5156051030784843,1.1408082302961498,-0.0018450068121775983
1715440481741510400,7.717510498046875,-1.3356260881930588,0.7690123417712748,0.22318404761627314
1715440481751560200,7.727560302734375,-0.2986848404109478,0.47693574051894244,0.4564315894115716
1715440481761610200,7.7376103515625,0.4852542907267809,0.24220658186376093,0.7658288894295692
1715440481771660300,7.747660400390625,1.108538749527931,0.11648140328489243,1.097443574213609
1715440481781710300,7.75771044921875,1.529873818051815,0.12130699681043625,1.4634939048238098
1715440481791759400,7.76775927734375,1.7206296141415833,0.252569789641723,1.8440815140262246
1715440481801809400,7.777809326171875,1.608289767640829,0.4183325257070362,2.0023148044347763
1715440481811859500,7.787859375,1.1705062531411647,0.6509483454700559,1.8815962750367818
1715440481821909500,7.797909423828125,0.5993237374991178,0.8887351381301879,1.6192591976836324
1715440481831959300,7.807959228515625,0.24207506443858146,1.0076138118151574,1.2836091929689049
1715440481842009300,7.81800927734375,0.1799550006121397,0.9625518502954393,0.9183059543989598
1715440481852059400,7.828059326171875,0.40486207262873647,0.7552949281945824,0.6635073097266256
1715440481862109400,7.838109375,0.8581418469458818,0.5505091454476118,0.6326853974182158
1715440481872159200,7.8481591796875,1.3430664673268795,0.4070242921639234,0.6773829826049507
1715440481882208300,7.858208251953125,1.6390087310314176,0.28442520971633495,0.6287766264766455
1715440481892258300,7.86825830078125,1.744405626526475,0.16989048351980746,0.48490182402729987
1715440481902308400,7.878308349609375,1.790607405731082,0.0463785970762372,0.27086883192025124
1715440481912358400,7.8883583984375,1.808408435359597,-0.09358750749677419,0.0625929055025801
1715440481922408400,7.898408447265625,1.730805555719137,-0.20225699492171406,-0.0365533686324954
1715440481932458500,7.90845849609375,1.692936720573902,-0.28753201662525535,-0.10279613841213285
1715440481942508300,7.91850830078125,1.6736854921370743,-0.4226465895138681,-0.1621043962208554
1715440481952558300,7.928558349609375,1.6471119579881428,-0.5169846961822361,-0.22056341678909955
1715440481962608400,7.9386083984375,1.698362252753973,-0.6676557346429676,-0.32938696226458997
1715440481972657200,7.9486572265625,1.8105267426878213,-0.825244297407195,-0.38425486300569023
1715440481982707200,7.958707275390625,2.027567903634906,-0.9885197467014193,-0.32572095057033
1715440481992757200,7.96875732421875,2.2263538614451885,-1.1318780509959905,-0.20588417244292795
1715440482002807300,7.978807373046875,2.3439824620038268,-1.2604428369149565,-0.09385748354457318
1715440482012857300,7.988857421875,2.190294121548533,-1.3217308338314293,0.05097578867338597
1715440482022907100,7.9989072265625,1.640864003509283,-1.2626245648682117,0.280857982221432
1715440482032957400,8.00895751953125,0.9414455685764551,-1.0592061249516904,0.4828383521588519
1715440482043007500,8.019007568359376,0.33972295324206353,-0.857855650415644,0.6182854814700782
1715440482053057500,8.0290576171875,-0.10350479813814163,-0.7150493539806455,0.7003609764799476
1715440482063107300,8.039107421875,-0.45723348037898537,-0.637416152267158,0.6695685094617306
1715440482073156400,8.04915625,-0.6696358756095171,-0.68686772704795,0.5376019522752612
1715440482083206400,8.059206298828125,-0.7098994969367981,-0.8096225115139037,0.40772896983455864
1715440482093256200,8.069256103515626,-0.5635211872339249,-0.9397387646585702,0.3528129556354135
1715440482103306200,8.07930615234375,-0.4306903413683176,-1.0728900015849618,0.2666533696496859
1715440482113356300,8.089356201171874,-0.4670277291625738,-1.1901263148903847,0.1548774771746248
1715440482123406300,8.09940625,-0.5832669211894274,-1.2457811282254754,0.07095525831952691
1715440482133456100,8.1094560546875,-0.7336959675878286,-1.3050818968474864,-0.029802140806615352
1715440482143506200,8.119506103515626,-0.802526927229762,-1.3721601676031947,-0.13786072979159653
1715440482153556200,8.12955615234375,-0.868859640315175,-1.3307649118974805,-0.19173413960263133
1715440482163605200,8.139605224609374,-1.0195487989544867,-1.2298238267675041,-0.2220146933096461
1715440482173655300,8.1496552734375,-1.20982937874794,-1.1307529194235801,-0.2579385866658762
1715440482183705300,8.159705322265625,-1.3856021252393722,-1.0306458739649504,-0.262681689539738
1715440482193755400,8.16975537109375,-1.5666986971020698,-0.9409840885445475,-0.20238743463465944
1715440482203805200,8.17980517578125,-1.6817103931605815,-0.839850914908573,-0.14879394687670283
1715440482213855200,8.189855224609374,-1.7632465205967425,-0.7937080262843519,-0.08066999385980889
1715440482223905300,8.1999052734375,-2.0510463943779467,-0.6970302246220409,-0.05971306661679409
1715440482233954800,8.209954833984375,-2.3730717783659694,-0.5521753250941633,-0.20179354212842882
1715440482244004900,8.2200048828125,-2.6304934650182723,-0.3954979588907212,-0.34175606650486584
1715440482254054100,8.23005419921875,-2.909273581519723,-0.10998513660077006,-0.2672922155424952
1715440482264104000,8.24010400390625,-3.3141847539871927,0.3153297588068992,-0.06423714731195941
1715440482274154000,8.250154052734375,-3.6912598250240087,0.6979694051682949,0.10295660793716087
1715440482284204000,8.2602041015625,-3.7389573957443236,0.9459595388695597,0.2844670943629928
1715440482294254000,8.270254150390626,-3.3378561369538304,1.0463362681150437,0.37463724943064153
1715440482304303900,8.280303955078125,-2.490426822680235,0.9193868815034627,0.2777236114521511
1715440482314354000,8.29035400390625,-1.4149831180244683,0.6210062847360969,0.03728327207593247
1715440482324404000,8.300404052734375,-0.44035541081428525,0.28951274211369454,-0.15783610778450965
1715440482334454000,8.3104541015625,0.3451911555200815,0.0296202083684504,-0.21426183242686092
1715440482344503000,8.3205029296875,1.0706909571707248,-0.23467224083617327,-0.20226822870178146
1715440482354553000,8.330552978515625,1.6757698971956967,-0.484315475506708,-0.1442364936348982
1715440482364603100,8.34060302734375,2.002509450224042,-0.6350012731451541,-0.0725808136947453
1715440482374653200,8.350653076171875,2.10954592961967,-0.6635095747489482,-0.06499382916446775
1715440482384703000,8.360702880859375,2.089793181401491,-0.5827380019444972,-0.03205086958147585
1715440482394753000,8.3707529296875,1.8769635006695984,-0.40473033600784836,-0.05927183478847146
1715440482404803000,8.380802978515625,1.578995868617296,-0.19649499732889233,-0.22794468614682553
1715440482414853000,8.39085302734375,1.319368780875206,-0.05298902819193899,-0.4352770846366882
1715440482424903000,8.40090283203125,1.1014385621339082,0.08275726672895252,-0.6161573103349656
1715440482434952000,8.410951904296875,0.9047896163523197,0.17837277292199433,-0.7844133245207369
1715440482445002000,8.421001953125,0.772142310360074,0.26306151917017995,-0.8657027837194502
1715440482455051800,8.4310517578125,0.7384504686385392,0.32771219745278357,-0.8459195672977715
1715440482465102000,8.44110205078125,0.7164180850505828,0.3451017967361957,-0.7806305180463939
1715440482475152100,8.451152099609375,0.6832032131910324,0.3125063719492405,-0.764414127260819
1715440482485202200,8.4612021484375,0.5803355439126491,0.31079101939871906,-0.7154974630743265
1715440482495252000,8.471251953125,0.487439818072319,0.30539456718266006,-0.6790928552627563
1715440482505302000,8.481302001953125,0.5472545275658369,0.24073263685368,-0.7839211570896207
1715440482515352000,8.49135205078125,0.7542769833236932,0.05043247557692229,-0.8939777149587869
1715440482525400800,8.50140087890625,1.0379086315095425,-0.1138463055409491,-0.9510583233132958
1715440482535451000,8.511450927734375,1.310180096769333,-0.2338878855254501,-1.0526685398764908
1715440482545501000,8.5215009765625,1.4557868375778198,-0.3096200028579682,-1.0975549986988304
1715440482555551000,8.531551025390625,1.4216069200783967,-0.2881036790333688,-1.0123738658238202
1715440482565600800,8.541600830078124,1.2963158220678568,-0.14754779187366365,-0.9290775237821042
1715440482575650800,8.55165087890625,1.1018038883149623,-0.02053593448512256,-0.9484188416551798
1715440482585700900,8.561700927734375,0.8977870441138743,0.07327369132973253,-1.0469499430339784
1715440482595751200,8.571751220703124,0.839933405560255,0.10838540978655219,-1.2062675215478986
1715440482605801000,8.581801025390625,0.837734434211254,0.03634403673075139,-1.2894653716512023
1715440482615851000,8.59185107421875,0.8031991274029016,0.055228258486092086,-1.1452465780697763
1715440482625900000,8.601900146484375,0.7797007629156112,0.14219152553752065,-0.9080614776298404
1715440482635950000,8.6119501953125,0.8321633560806513,0.16453487477079032,-0.6394578141625971
1715440482645999900,8.621999755859376,0.8194394835859536,0.15488858309052883,-0.470425226113759
1715440482656050000,8.6320498046875,0.7439315303981304,0.09136968531683087,-0.5340547811876982
1715440482666100000,8.642099853515624,0.632179128396511,-0.028359686913341283,-0.6734973733432591
1715440482676150000,8.65214990234375,0.4490595262736082,-0.10372691645622253,-0.614201427026838
1715440482686199800,8.66219970703125,0.2620511000186205,-0.10790157179236412,-0.5224101918296888
1715440482696249900,8.672249755859376,0.05797580362856388,-0.0822393803346902,-0.49263417184501884
1715440482706300000,8.6822998046875,-0.060981999707221984,-0.07957403358295559,-0.3890928410887718
1715440482716349000,8.692348876953124,-0.13952771315574644,-0.05232391534671187,-0.24128453511539846
1715440482726399000,8.70239892578125,-0.3248620687186718,0.003459858130291104,0.004871624624356627
1715440482736449000,8.712448974609375,-0.6052011050999164,0.15255889803394673,0.35823085249830033
1715440482746499000,8.7224990234375,-0.9896329686403273,0.32610534677803515,0.5778326942462474
1715440482756548900,8.732548828125,-1.4644056128412484,0.4726238686691969,0.6732417180817574
1715440482766599000,8.742598876953124,-1.9770260493993759,0.5699279855363071,0.6891872560366987
1715440482776649000,8.75264892578125,-2.346315873387456,0.595445690489374,0.6718187726065517
1715440482786699000,8.762698974609375,-2.464644731169939,0.6128126030169427,0.733980995074287
1715440482796748800,8.772748779296874,-2.323513674470782,0.5447137570418417,0.7021683181628584
1715440482806798800,8.782798828125,-2.0735674382656812,0.36375378063824026,0.5583886466510594
1715440482816848100,8.79284814453125,-1.8572545915931462,0.2247126454230398,0.48815910879019647
1715440482826898200,8.802898193359376,-1.8546897095412014,0.35930008916500955,0.44540096723344175
1715440482836948000,8.812947998046875,-2.187622271990776,0.6965066391393542,0.34627507829926907
1715440482846998000,8.822998046875,-2.819710214972496,1.1986148879028855,0.27716900977669284
1715440482857048000,8.833048095703125,-3.539727785819769,1.6758445698671043,0.10481785349808632
1715440482867098000,8.84309814453125,-4.003853363800048,1.9355929459013044,-0.15235875408565625
1715440482877148000,8.85314794921875,-3.9912972490876912,2.0253674709811804,-0.42715237650051713
1715440482887198000,8.863197998046875,-3.663589143288135,2.0155632853254675,-0.6381053766403347
1715440482897248000,8.873248046875,-3.009179478383064,1.856363487972319,-0.5911690726161003
1715440482907296800,8.883296875,-2.126642025849223,1.5956846992202103,-0.20396821928638964
1715440482917347000,8.89334716796875,-1.1808651500701903,1.3432365631967782,0.3248421219091862
1715440482927397000,8.903397216796876,-0.4038572795003652,1.084413485313952,0.853845830252394
1715440482937447200,8.913447265625,0.2622065828412771,0.9167749454393982,1.399384566876292
1715440482947497000,8.9234970703125,0.7699702270179987,0.8334169363383204,1.7588957780413328
1715440482957547000,8.933547119140625,1.0826754094749689,0.7794947189494967,1.7518858992792665
1715440482967597000,8.94359716796875,1.122146419119835,0.7504725495394319,1.4021135534487663
1715440482977647000,8.953647216796876,0.8687754691630601,0.7226854018170387,0.8603202869635075
1715440482987697000,8.96369677734375,0.5030354466110467,0.6077551004316657,0.4967870172081515
1715440482997746000,8.973745849609376,0.2757476169377565,0.5866149895083159,0.6123155036823824
1715440483007796000,8.9837958984375,0.44222938799262046,0.5969573736939578,0.9909011619452387
1715440483017845800,8.993845703125,0.7822071927785873,0.5367289688330144,1.4117600643247366
1715440483027895800,9.003895751953126,1.1310007567048073,0.45398901856504376,1.633408280675858
1715440483037946000,9.013946044921875,1.4505436762273312,0.2626954623367637,1.5673969084993005
1715440483047996200,9.02399609375,1.6759470073282718,0.08591120071522891,1.351151135713607
1715440483058046200,9.034046142578125,1.8325462667942045,-0.016062003941461442,1.1449256755523383
1715440483068096000,9.044095947265625,2.043901198798418,-0.14549612004086374,0.9978121834427117
1715440483078146000,9.05414599609375,2.286061018911004,-0.26805866987034677,0.9139481975808739
1715440483088196000,9.064196044921875,2.455481181505322,-0.39615985686555505,0.849477990431711
1715440483098244900,9.074244873046876,2.562743870872259,-0.5018158416882157,0.8164052304565906
1715440483108295000,9.084294921875,2.6962662061333655,-0.6696262309983372,0.6840452169731259
1715440483118345000,9.094344970703125,2.7189912481606004,-0.8691034590084106,0.4976671975761652
1715440483128395000,9.10439501953125,2.5944834094822404,-1.029861810915172,0.3782272732792422
1715440483138444800,9.11444482421875,2.4010633626192806,-1.120356101636961,0.3152341894779354
1715440483148494800,9.124494873046874,2.1739152336776257,-1.1713701764941216,0.2614668521235697
1715440483158545000,9.134544921875,1.7734867595821617,-1.1176811833392828,0.32226938534434885
1715440483168595200,9.14459521484375,1.3703209694772958,-1.053150770435482,0.384623513654992
1715440483178645000,9.15464501953125,1.1648019040197133,-1.0462829304926098,0.2849923968787305
1715440483188694000,9.164694091796875,1.0002297659784556,-1.048057831210643,0.16363958816519006
1715440483198744000,9.174744140625,0.8672060278892516,-1.039683605292812,0.08817682582596316
1715440483208793900,9.1847939453125,0.6927928793132305,-0.9840075299739837,0.06927735170256347
1715440483218844000,9.194843994140625,0.5418763416588306,-0.8905927486956119,0.14542455264199525
1715440483228894000,9.20489404296875,0.3445271386533975,-0.7813530601672828,0.2887801900554448
1715440483238944000,9.214944091796875,0.09980068292319774,-0.6495838521838188,0.3547020207850262
1715440483248993800,9.224993896484374,-0.19222236151099203,-0.5563759185891598,0.2936664277270436
1715440483259043800,9.2350439453125,-0.2883177601754665,-0.6066987963117658,0.09142976320730521
1715440483269094000,9.245093994140625,-0.2788859149634838,-0.7396084795672446,-0.14700208589071406
1715440483279143000,9.255142822265626,-0.15141045865118502,-0.8578268627125769,-0.32535350549742575
1715440483289193000,9.26519287109375,-0.021859949630498886,-0.9376726259090006,-0.41008302214741704
1715440483299243000,9.275242919921874,0.11198562623560428,-1.0207260991055518,-0.4616295599134639
1715440483309293000,9.28529296875,0.09890519538819789,-1.01916308757253,-0.4311130237597972
1715440483319342800,9.2953427734375,0.050314475220441815,-0.9280711232185364,-0.35511206289064134
1715440483329393000,9.305392822265626,-0.17149638434648512,-0.9120140877131372,-0.2600252932794392
1715440483339443000,9.31544287109375,-0.4617021502256393,-0.913585720944032,-0.17273202708866447
1715440483349493000,9.325492919921874,-0.7268751816570759,-0.9306124782644212,-0.15419873766284434
1715440483359542800,9.335542724609375,-1.0647212351113557,-0.9253475434735416,-0.1494788695340976
1715440483369592800,9.3455927734375,-1.3675579345047473,-0.8864955425098537,-0.18467764521986246
1715440483379642000,9.35564208984375,-1.60769121722579,-0.879046760873869,-0.193741022445634
1715440483389692000,9.36569189453125,-1.7868319788455962,-0.8788990229662508,-0.20287045064494014
1715440483399742000,9.375741943359374,-2.0979840866416692,-0.7751530364833772,-0.21635551677048204
1715440483409792000,9.3857919921875,-2.604210438248515,-0.47634427743181584,-0.24024229605346917
1715440483419842000,9.395842041015625,-3.148942753860354,-0.056457946411520236,-0.2892493419371545
1715440483429892000,9.40589208984375,-3.7679344839036464,0.37849282888025043,-0.42006892104558646
1715440483439942000,9.41594189453125,-4.263936378616094,0.7077165268745272,-0.6050614774335176
1715440483449992000,9.425991943359374,-4.4352357790857555,0.8950580575414001,-0.7243808075580745
1715440483460042000,9.4360419921875,-4.131989329847693,0.9579037322286515,-0.6671532650135457
1715440483470090800,9.4460908203125,-3.33574893554151,0.9086839934423565,-0.426236357634142
1715440483480140800,9.456140869140626,-2.2731115209668875,0.7144950810987502,-0.2581870815342292
1715440483490191000,9.466191162109375,-1.2581769378095864,0.42654491212666035,-0.251274306471087
1715440483500241200,9.4762412109375,-0.3840209446519613,0.11560067492760717,-0.2739313612960279
1715440483510291000,9.486291015625,0.33972061515450475,-0.1156852114059031,-0.2834814077938907
1715440483520341000,9.496341064453125,0.9218243377834558,-0.2926712792098522,-0.3794816207218915
1715440483530391000,9.50639111328125,1.2119845109552145,-0.3747963855151087,-0.4525714433846995
1715440483540441000,9.516441162109375,1.3252759590923786,-0.3359675462312996,-0.49576136395484205
1715440483550491000,9.526490966796874,1.2625380556285382,-0.2584205614965409,-0.4995534862468019
1715440483560541000,9.536541015625,1.1495628338336943,-0.08706570451259613,-0.4514380189079791
1715440483570590000,9.54658984375,1.0817664779365062,0.08205847080983221,-0.4905560138640925
1715440483580639700,9.5566396484375,1.069776764935255,0.19410707927905022,-0.6313743148196488
1715440483590689800,9.566689697265625,1.0660399164944887,0.2747198813252151,-0.7766510199561715
1715440483600739800,9.57673974609375,1.0994605400592088,0.3276383284989744,-0.8757683967903256
1715440483610790000,9.586789794921875,1.2038029580652714,0.35431327719576655,-0.8656511265974491
1715440483620840000,9.59683984375,1.3393389712363482,0.37845878048017617,-0.7919409435465932
1715440483630890000,9.606889892578126,1.4654764569431542,0.36772082110568877,-0.7352029380846768
1715440483640940000,9.61693994140625,1.5335007763773203,0.351943917715922,-0.7341910576283931
1715440483650990000,9.626989990234375,1.636818527510762,0.3090332890111953,-0.7667776415217668
1715440483661038800,9.637038818359375,1.7946043664127587,0.22190533291734754,-0.8462935882419347
1715440483671089000,9.6470888671875,1.946924341124296,0.1275572893768549,-0.9106767746947705
1715440483681139000,9.657138916015626,2.085970408242941,0.09501841708272694,-1.0095900072589516
1715440483691189000,9.66718896484375,2.204261856624484,0.0004608955100178718,-1.1469681411653756
1715440483701238800,9.67723876953125,2.3304303219914435,-0.06171893567964434,-0.9915154213860631
1715440483711288800,9.687288818359375,2.331677107182145,0.03496719541959464,-0.6173251120053231
1715440483721339000,9.6973388671875,1.981166217944026,0.21966946362406015,-0.29661409855149684
1715440483731389000,9.707388916015624,1.5424878004312514,0.3430811045635491,-0.2235117817332968
1715440483741439000,9.71743896484375,1.2305687999159096,0.33721710790097714,-0.3426857120377943
1715440483751489000,9.727489013671875,1.0576900213003158,0.3057664692349732,-0.4734660916469991
1715440483761538000,9.7375380859375,0.8837246164917946,0.2671800604049116,-0.45995263967718925
1715440483771587800,9.747587890625,0.583513589426875,0.35225824436210096,-0.26846447419226166
1715440483781638000,9.757637939453126,0.1947983494788408,0.5302694904953241,-0.037694209230691195
1715440483791688000,9.76768798828125,-0.15513561665415762,0.6458677542701363,0.08307393146269022
1715440483801738000,9.777738037109375,-0.320885566303134,0.6122103262748569,0.08120265769809484
1715440483811787800,9.787787841796876,-0.40387832228839393,0.5142101169023663,0.05487535339519381
1715440483821837800,9.797837890625,-0.4394552471041679,0.3409078521776944,-0.01873378043398261
1715440483831888000,9.807887939453124,-0.4488502674371004,0.1772128622971475,-0.025554237571172415
1715440483841938000,9.81793798828125,-0.44939621088206766,0.0779774851065129,0.06690675011370331
1715440483851987000,9.827987060546874,-0.499452327427268,0.028467312006279825,0.15190733879003673
1715440483862037000,9.838037109375,-0.5114812033951283,-0.019855697135999797,0.17970709026567636
1715440483872087000,9.848087158203125,-0.5092535904735327,-0.09159896402806043,0.198108168146573
1715440483882137000,9.85813720703125,-0.6233206991583109,-0.062471726808324454,0.3213255651555955
1715440483892187000,9.868186767578125,-0.9046165978729724,0.06713876877129077,0.5262231377139687
1715440483902237000,9.87823681640625,-1.3279045540302992,0.23242782291024922,0.7608633759766816
1715440483912287000,9.888286865234376,-1.842667263314128,0.4658760018441826,0.9528025366321206
1715440483922337000,9.8983369140625,-2.3283733894616363,0.6729420775480568,1.0205879327438772
1715440483932386800,9.90838671875,-2.5520208168059586,0.725890992925316,0.9283955328673124
1715440483942436900,9.918436767578125,-2.460920157688856,0.6002643062848597,0.804393890145421
1715440483952486100,9.928486083984374,-2.1947774044424295,0.4203567980762571,0.7056202121824026
1715440483962536000,9.938535888671876,-1.974147863614559,0.35502277717199177,0.6724168115649372
1715440483972586000,9.9485859375,-2.068670313873887,0.47298831806741654,0.7444513164885341
1715440483982636000,9.958635986328124,-2.4968822824299335,0.8242328553423285,0.8218596234049648
1715440483992686000,9.96868603515625,-2.9071278016626834,1.2303643633849919,0.7505746216744184
1715440484002735900,9.97873583984375,-3.15213950407505,1.4419278235733508,0.43704051411263645
1715440484012786000,9.988785888671876,-3.2040678442329167,1.4413818801283835,0.020830675081419756
1715440484022836000,9.9988359375,-2.667187995687127,1.2250894917219877,-0.3952460664888844
1715440484032886000,10.008885986328124,-1.6224007105797529,0.8213960244812071,-0.6670810765601695
1715440484042935800,10.018935791015625,-0.5451379738032818,0.4038259710466489,-0.7046535591073334
1715440484052984800,10.02898486328125,0.3253922300726175,0.07451002819165586,-0.6047173036383464
1715440484063035100,10.03903515625,0.9489017298012972,-0.1933921359427273,-0.5236019223649054
1715440484073085000,10.0490849609375,1.4451105452626942,-0.39878947471678255,-0.4193854322934523
1715440484083135000,10.059135009765624,1.7776421256959438,-0.4883271223008632,-0.28543920906446874
1715440484093185000,10.06918505859375,1.8981816452652214,-0.38556174435317514,-0.07847052932046353
1715440484103235000,10.079235107421875,1.71032215513885,-0.1475048295147717,0.1925838882997632
1715440484113284900,10.089284912109376,1.2982447443038225,0.1663769955061376,0.5710599852409214
1715440484123335000,10.0993349609375,0.7780313683986664,0.4437446148611605,0.821433799208328
1715440484133385000,10.109385009765624,0.035571079596877095,0.7600171344108879,1.011900768419355
1715440484143434000,10.11943408203125,-0.3431038278520107,0.9504726323798298,1.128803027464822
1715440484153483800,10.12948388671875,-0.6785854902625084,1.0293937550120056,1.138592015551403
1715440484163533800,10.139533935546876,-0.8709124811917542,1.0418509393945337,1.016884402050823
1715440484173584000,10.149583984375,-0.8478630295157432,0.9300967838272451,0.7538939022902399
1715440484183634000,10.159634033203124,-0.6191635794788599,0.7398352009952068,0.490041525003314
1715440484193684000,10.16968408203125,-0.26121932536959647,0.5157973860938102,0.29496439511571076
1715440484203734000,10.179734130859375,0.1745604480922222,0.2983366845604032,0.3105892132163048
1715440484213784000,10.1897841796875,0.6020517011582851,0.17307335133962332,0.5148449076745659
1715440484223834000,10.199834228515625,0.9656178868025541,0.12172332252636552,0.7502865985132754
1715440484233884200,10.20988427734375,1.1802730293959378,0.07944083565734326,0.8364300005491823
1715440484243933000,10.219932861328125,1.3828227236539126,-0.05236220153048634,0.7895718032624572
1715440484253983000,10.22998291015625,1.5938105759114025,-0.20392573185153304,0.7016502125728875
1715440484264033000,10.240032958984376,1.793861439090967,-0.3852724790830165,0.6570569645434617
1715440484274083000,10.2500830078125,1.930967478057742,-0.5065086026143283,0.6644253013543784
1715440484284132900,10.2601328125,2.1718448571443556,-0.6151924838908016,0.7703932747356593
1715440484294183000,10.270182861328125,2.173008055704832,-0.7874236122526228,0.6840870102882385
1715440484304233000,10.28023291015625,2.165592226490378,-0.838795268375799,0.553368443868868
1715440484314283000,10.290282958984376,2.2037521535366773,-0.95259371618703,0.46355851868204767
1715440484324333000,10.3003330078125,2.2120377513229847,-0.94224300256446,0.4571493822921067
1715440484334383000,10.310383056640624,2.1861878552734852,-0.8370249707676469,0.47694443528205155
1715440484344432000,10.32043212890625,2.069052006667852,-0.7293880412608384,0.42283359998594966
1715440484354482200,10.330482177734375,1.8087042034357785,-0.7166676028322428,0.2803076548622921
1715440484364532000,10.340531982421876,1.4734510890841483,-0.7308823714718222,0.06352596683530136
1715440484374582000,10.35058203125,1.2954501451492308,-0.798982532621175,-0.06740909187896177
1715440484384632000,10.360632080078124,1.2894628874331713,-0.9477821511868387,-0.19408590862685812
1715440484394682000,10.37068212890625,1.2591466596245764,-1.0879800186891109,-0.35466903183087706
1715440484404732000,10.38073193359375,1.1302432163357734,-1.1631032834082842,-0.5187530210290103
1715440484414782000,10.390781982421874,0.7812485768795013,-1.1809376307845114,-0.6039280529567972
1715440484424832000,10.40083203125,0.26646540932953355,-1.0946643187586218,-0.6457909627068787
1715440484434881000,10.410881103515624,-0.19754092618525027,-1.0241577540546656,-0.7499285788558423
1715440484444931000,10.42093115234375,-0.5845680669158697,-0.9703478379338979,-0.7625960449881851
1715440484454981000,10.430981201171875,-1.0063187305033205,-0.7260491060964763,-0.6005448037266731
1715440484465031200,10.44103125,-1.5318910030931234,-0.45454431436024606,-0.43955607713013883
1715440484475081000,10.4510810546875,-1.9817519088774918,-0.2504148766301572,-0.33356961824409664
1715440484485131000,10.461131103515624,-2.343066516202688,-0.10925817403309046,-0.3071079469718039
1715440484495181000,10.47118115234375,-2.5437299583226443,-0.08301401796899735,-0.33864326824657615
1715440484505231000,10.481231201171875,-2.6131577148139473,-0.11202040528804064,-0.3652953109918162
1715440484515281000,10.491281005859374,-2.5806243954777717,-0.16289894413203,-0.4007084966132417
1715440484525331000,10.5013310546875,-2.432782442963123,-0.2733680283248424,-0.43089046705029904
1715440484535380200,10.511380126953124,-2.3259768497139213,-0.3121658148832619,-0.4046927074111998
1715440484545430300,10.52143017578125,-2.287459779793024,-0.22079426640290767,-0.5092654635744169
1715440484555480000,10.53147998046875,-2.288454051527381,0.032191191367618735,-0.6101541974626481
1715440484565530000,10.541530029296876,-2.4459447068750855,0.41920412090979514,-0.6283151464447378
1715440484575580200,10.551580078125,-2.7481892855942247,0.7553226929843425,-0.6440235877081751
1715440484585630200,10.561630126953125,-3.0622347767442464,0.9571241992235183,-0.6215741477519273
1715440484595680000,10.571679931640626,-3.2640164092391726,1.076421902038157,-0.4945958638394251
1715440484605730000,10.58172998046875,-2.9194220505684614,1.1136518547579646,-0.2876996648097411
1715440484615780000,10.591780029296874,-1.8938567678034304,0.863546336337924,-0.16044059119448065
1715440484625830100,10.601830078125,-0.6772948659300804,0.33498416121713814,-0.23507782596237956
1715440484635879000,10.61187890625,0.32457156133949755,-0.19456958222426474,-0.3409523489065468
1715440484645929200,10.62192919921875,1.155449553784728,-0.6126240216422826,-0.3093062607336789
1715440484655979300,10.631979248046875,1.75306824093163,-0.9065851945322007,-0.24627456195503472
1715440484666029000,10.642029052734374,2.002574332153797,-1.0222436640616506,-0.19018186865933237
1715440484676079000,10.6520791015625,1.962342275008559,-0.9905553441822528,-0.1990749673521146
1715440484686129200,10.662129150390625,1.568136036428809,-0.8027730840105562,-0.13690012286482378
1715440484696179200,10.67217919921875,1.0174982961654662,-0.5045307997353374,-0.10730387989385053
1715440484706229000,10.68222900390625,0.6122592069178819,-0.2359557778406888,-0.2585924109321087
1715440484716279000,10.692279052734374,0.37401860607564447,-0.04597118531912565,-0.4665936120616272
1715440484726329000,10.7023291015625,0.14986322920918463,0.1282046473696828,-0.6354262205589563
1715440484736377900,10.7123779296875,0.07374386612474917,0.22985475755184887,-0.7796911183044314
1715440484746428000,10.722427978515626,0.10067746575772761,0.2890453437976539,-0.7802130232866853
1715440484756478000,10.73247802734375,0.2610550747185945,0.3148336458530277,-0.7316860890701413
1715440484766528300,10.7425283203125,0.4706348137438297,0.25172398646734656,-0.7295643476758151
1715440484776578300,10.752578369140625,0.703892365476489,0.14134594155885277,-0.7142745702158659
1715440484786628000,10.762628173828125,0.9396423185467719,0.022241569359228015,-0.6009598873335867
1715440484796678100,10.77267822265625,1.151672957855463,-0.10053732663467525,-0.4610169809730723
1715440484806728200,10.782728271484375,1.3660340859383344,-0.15971556485556065,-0.3591527165835723
1715440484816778200,10.7927783203125,1.5246452697485684,-0.21630400577895342,-0.26103211396811526
1715440484826828000,10.802828125,1.622374407094717,-0.258464254507795,-0.24975677804760635
1715440484836877000,10.812876953125,1.6452490867257117,-0.3148269969165325,-0.31026312306709586
1715440484846927000,10.822927001953126,1.5876567294567823,-0.34131270665153857,-0.2889191053357906
1715440484856977000,10.832976806640625,1.5372680199563502,-0.36271884809993205,-0.2711410912566818
1715440484867027000,10.84302685546875,1.514202201667428,-0.38161001105271275,-0.09210841138754039
1715440484877077000,10.853076904296875,1.3215923021435736,-0.2994977642290294,0.2320769088470377
1715440484887127000,10.863126953125,1.0286889677435158,-0.14216690255291758,0.36511122312918304
1715440484897177000,10.873177001953126,0.7182336100399493,0.049722354546189305,0.3969276263676583
1715440484907227100,10.88322705078125,0.40075814444124697,0.23164558649137615,0.35426454268321395
1715440484917277200,10.893277099609374,0.09950082319378853,0.33250469242632386,0.2207034828469157
1715440484927326000,10.903325927734375,-0.07226619478762149,0.37557796434685586,0.04400082596107386
1715440484937376000,10.9133759765625,-0.0904915873080492,0.34462387702614067,-0.06268143316940404
1715440484947426000,10.923426025390626,-0.07717267152965068,0.30079898302070796,-0.10569601543894969
1715440484957476000,10.93347607421875,-0.06919628582298755,0.15807641934640704,-0.24756454696664584
1715440484967526000,10.94352587890625,-0.12343874814212322,-0.004203954495862126,-0.31515206415243446
1715440484977576000,10.953575927734375,-0.16794833647608756,-0.10183518442548811,-0.30953195924833415
1715440484987626000,10.9636259765625,-0.16932605457007885,-0.19609335772544145,-0.25211707743816075
1715440484997676000,10.973676025390626,-0.16816694766283033,-0.19684702563695608,-0.020468257810082286
1715440485007726000,10.98372607421875,-0.17251403695642947,-0.13743439413830638,0.18069971803221851
1715440485017776000,10.993776123046874,-0.2730266675412655,-0.048731736073642964,0.31939839648529883
1715440485027825200,11.0038251953125,-0.43930093332529063,-0.003944499842077493,0.4826214945377782
1715440485037875200,11.013875244140625,-0.6396329515337944,0.013295388772338629,0.33914866048544645
1715440485047925000,11.023925048828126,-0.793457485589385,-0.04760580078363418,0.297432757990621
1715440485057975000,11.03397509765625,-1.0244950231850147,-0.04135959987044334,0.5150335986470803
1715440485068025000,11.044025146484374,-1.3237071023404599,0.14448964641205966,0.6539632363118231
1715440485078075100,11.0540751953125,-1.583311393728852,0.3781567287936806,0.8143230904202908
1715440485088125000,11.064125,-1.7716367478013038,0.7050340097922831,0.9032182753823697
1715440485098175000,11.074175048828126,-1.873047788530588,0.9829901696249842,0.7349372728858142
1715440485108225000,11.08422509765625,-1.8254028247803449,1.130761248860508,0.5592018261974677
1715440485118275000,11.094275146484375,-1.844539486926794,1.3186799218282104,0.2862860168858431
1715440485128324000,11.104323974609375,-1.9617051461488006,1.427963157237321,-0.02964525147816166
1715440485138374100,11.1143740234375,-2.2284908734738824,1.5209173352666199,-0.3640159752383828
1715440485148424200,11.124424072265626,-2.3383213675022123,1.4602327110707758,-0.6792416891489178
1715440485158474000,11.134473876953125,-1.8737837015897034,1.1409091333873569,-0.9965512235961854
1715440485168524000,11.14452392578125,-0.9338631506234407,0.6702918553002178,-1.0884981242790817
1715440485178574000,11.154573974609375,0.05486497813165187,0.19253407607497647,-0.6434866312872618
1715440485188624100,11.1646240234375,0.8859721031576394,-0.10921338504329323,-0.19147296791579574
1715440485198674000,11.174673828125,1.3998036690711975,-0.3848798265036195,-0.022505554057657716
1715440485208724000,11.184723876953125,1.527130656823516,-0.53835014029406,0.08874141917247325
1715440485218774000,11.19477392578125,1.2168980019599198,-0.39446437805928286,0.21806352626476436
1715440485228823300,11.2048232421875,0.6573936491519212,-0.08857483043391257,0.4602176107563078
1715440485238872600,11.21487255859375,0.13421557822227478,0.2831077339095995,0.7113731496859341
1715440485248922600,11.224922607421876,-0.32022797917723655,0.5869052776917815,0.8773483594581484
1715440485258972400,11.234972412109375,-0.7797469401448964,0.7812338177017867,0.911413418406248
1715440485269022500,11.2450224609375,-1.1330781475007534,0.8625123901803046,0.8087059811908751
1715440485279072500,11.255072509765625,-1.2986463108420372,0.8320353457868098,0.7725099015634507
1715440485289122600,11.26512255859375,-1.034233157867193,0.735134402893111,0.7593933764893561
1715440485299172400,11.27517236328125,-0.4912526543587446,0.5106673297289759,0.7083462761454283
1715440485309222400,11.285222412109375,0.07258242112994194,0.22596259068520738,0.7207552374720573
1715440485319272400,11.2952724609375,0.4424620277047157,0.043473724213894456,0.7522161052711308
1715440485329321500,11.305321533203125,0.5125888723760843,-0.013371303552761673,0.8751442004773765
1715440485339371500,11.31537158203125,0.5572866767585277,-0.04360352460602298,0.887880859388411
1715440485349421600,11.325421630859376,0.7045628120839595,-0.14014564412469044,0.8263698673710227
1715440485359471600,11.3354716796875,0.9352180723637342,-0.259251313232258,0.7313540806367993
1715440485369521400,11.345521484375,1.2007108372688293,-0.3753445939823985,0.5926742164820432
1715440485379571500,11.355571533203126,1.4814146153092382,-0.5085227189157158,0.49787579882554706
1715440485389621500,11.36562158203125,1.8182453542411325,-0.6316545200005174,0.4172218610513955
1715440485399671600,11.375671630859374,2.1985779657691715,-0.797114839053154,0.37670974485576153
1715440485409721300,11.385721435546875,2.4712457368701695,-0.9410284391429274,0.37457207523994146
1715440485419771400,11.395771484375,2.6528672093898056,-1.0775199264079331,0.3143518171528354
1715440485429820400,11.4058203125,2.7043583271741864,-1.1697118878930806,0.26156291464287784
1715440485439870700,11.41587060546875,2.3894892446815965,-1.1342046673126518,0.28436138723250476
1715440485449920500,11.42592041015625,1.8231097454071044,-1.0023265921272337,0.4622733377097174
1715440485459970600,11.435970458984375,1.3288760294109583,-0.8039476076826453,0.6483215040978044
1715440485470020600,11.4460205078125,0.9175795398205518,-0.655010553407669,0.716366866319999
1715440485480070700,11.456070556640626,0.5561088651508093,-0.5666746097635478,0.6486223867405205
1715440485490120400,11.466120361328125,0.2682154678672552,-0.48659978705160317,0.5295692332714795
1715440485500170500,11.47617041015625,-0.016513912427425382,-0.46580512856505807,0.3283701864374801
1715440485510220500,11.486220458984375,-0.2732522929906845,-0.49096207391433416,0.16902957410784436
1715440485520270600,11.4962705078125,-0.45284839716255665,-0.45902818177603183,0.18731760180201382
1715440485530319400,11.5063193359375,-0.6317635333329439,-0.42462658434994516,0.2114857187770307
1715440485540369400,11.516369384765625,-0.7260515903145074,-0.516012563214451,0.10503814518526196
1715440485550419500,11.52641943359375,-0.7066273433983326,-0.6221178992398083,-0.015739626419567502
1715440485560469500,11.536469482421875,-0.692124186271429,-0.703854956075549,-0.21354301663301883
1715440485570519600,11.54651953125,-0.7539981663823128,-0.79955609472543,-0.4658665764287114
1715440485580569600,11.556569580078126,-0.8424222997665405,-0.8406317630879581,-0.6983373616978525
1715440485590619600,11.56661962890625,-0.8408253859639168,-0.7954151955284178,-0.8716876302827149
1715440485600669400,11.57666943359375,-0.8357914834499358,-0.7497001769274473,-1.0048080336794256
1715440485610719500,11.586719482421875,-0.901719122865796,-0.767963709501177,-1.0865389530353247
1715440485620769500,11.59676953125,-0.9087234486699104,-0.7755288840584457,-1.2019058922722936
1715440485630818300,11.606818359375,-1.0266577541768551,-0.7755078412704169,-1.1750153280634432
1715440485640868400,11.616868408203125,-1.4794874466389416,-0.5887083815909921,-0.91415131893754
1715440485650918400,11.62691845703125,-1.9084949494868515,-0.27475970187895,-0.5514957087995485
1715440485660968400,11.636968505859375,-2.3431810824930666,0.0934943493206054,-0.28541506100390107
1715440485671018500,11.6470185546875,-2.884244938725233,0.5389042305128648,-0.3195147894065827
1715440485681068500,11.657068603515626,-3.419424413093924,0.9712812463264912,-0.48735692556183785
1715440485691118600,11.66711865234375,-3.7321272574633357,1.310929453831911,-0.6061263667186721
1715440485701168600,11.677168701171874,-3.677963121077418,1.432073807426542,-0.6986664475217461
1715440485711218700,11.68721875,-2.915834839731455,1.2717286394305527,-0.8320162026949226
1715440485721268500,11.6972685546875,-1.6457926920831203,0.873890108763054,-0.9406038570553064
1715440485731317500,11.7073173828125,-0.5485498280733824,0.40472237189710136,-1.0296073246974498
1715440485741367600,11.717367431640625,0.20529694713950156,-0.024661453449912368,-0.9767042942885309
1715440485751417300,11.727417236328124,0.7759948941349982,-0.39000871382467445,-0.7230993163801729
1715440485761467400,11.73746728515625,1.220399872601032,-0.639894159753248,-0.2336347875472158
1715440485771517400,11.747517333984375,1.496433905264735,-0.7416124398007988,0.16751600947342812
1715440485781567500,11.7575673828125,1.5598352410733698,-0.8023197872851043,0.34415107188262045
1715440485791617300,11.7676171875,1.2451128735750914,-0.7115234448768198,0.43844632578995074
1715440485801667300,11.777667236328124,0.693698303720355,-0.44465500770434735,0.5136253027517348
1715440485811717600,11.787717529296875,0.15547347030639647,-0.1538550570580177,0.5706149083545431
1715440485821767700,11.797767578125,-0.1512801102697849,0.09529741668719797,0.6186792300280183
1715440485831816400,11.80781640625,-0.2975567131638527,0.2691922770101577,0.6111654203318059
1715440485841866500,11.817866455078125,-0.3627332419514656,0.31453725672233845,0.58354164647758
1715440485851916500,11.82791650390625,-0.23481179543733596,0.2578784905090928,0.4597635103132576
1715440485861966300,11.83796630859375,0.16248831750452516,0.13202727439776063,0.33826767639983446
1715440485872016400,11.848016357421875,0.5022755681544542,0.03625957331769168,0.2657707963951863
1715440485882066400,11.85806640625,0.6197685596346855,0.015332173563260585,0.160949125238508
1715440485892116500,11.868116455078125,0.6233920108288526,0.027541182737844064,0.06287954042423516
1715440485902166500,11.87816650390625,0.6417576886028051,0.01371308446144685,-0.02294215537663549
1715440485912216300,11.88821630859375,0.7137900746345519,0.014986337533965706,-0.059910114425700156
1715440485922266400,11.898266357421875,0.9598106618285178,-0.015473481730092315,-0.11694564152946695
1715440485932315600,11.908315673828126,1.2519032643675803,-0.12145334647856652,-0.12858940890356899
1715440485942365400,11.918365478515625,1.487832665657997,-0.18485605226038024,-0.14127148808315396
1715440485952415500,11.92841552734375,1.6395874077022075,-0.2773165102222934,-0.194194337437395
1715440485962465500,11.938465576171875,1.5976754346460103,-0.32059458399992435,-0.13788946269573643
1715440485972515600,11.948515625,1.3233324238091706,-0.18762085906490683,-0.0433802007115446
1715440485982565400,11.9585654296875,1.062535123243928,-0.08944679096285253,-0.06647484323615208
1715440485992615400,11.968615478515625,0.9513765954822301,-0.06279146028198301,-0.10807913858266546
1715440486002665500,11.97866552734375,0.9359995781302451,-0.048771556627377866,-0.17438585871029644
1715440486012715500,11.988715576171876,0.9708423434525728,-0.0004014569403603673,-0.15529917318541556
1715440486022765300,11.998765380859375,0.8707605055004358,0.034417489114962514,-0.16711173952147362
1715440486032814600,12.008814697265626,0.6612701983243227,0.08319006865564733,-0.16256784901414065
1715440486042864600,12.01886474609375,0.3872100960820913,0.18681451111808417,-0.18194887784309685
1715440486052914400,12.02891455078125,0.2198082875728607,0.19657065638098864,-0.2725188093506731
1715440486062964500,12.038964599609375,0.15835107156932354,0.13209701516572386,-0.3375511986935511
1715440486073014500,12.0490146484375,0.06424129376411437,0.04546626800429076,-0.3715128703324124
1715440486083064600,12.059064697265624,-0.05505787035524845,-0.011007971954904496,-0.40480113622173663
1715440486093114400,12.0691142578125,-0.11739420728087424,-0.07638725677300244,-0.43108708560094233
1715440486103164400,12.079164306640624,-0.1431108323395252,-0.07324556121379136,-0.3585775105115026
1715440486113214500,12.08921435546875,-0.12253858443200588,-0.04013802218623459,-0.21692579093910752
1715440486123264500,12.099264404296875,-0.03883563435077667,-0.018687457074224947,-0.12467636364568024
1715440486133313500,12.1093134765625,-0.022311785051226614,-0.0002554360657930374,-0.10092029807027429
1715440486143363600,12.119363525390625,-0.1447229437112808,0.07791830226518213,-0.0054924782027490435
1715440486153413600,12.12941357421875,-0.24778701234459877,0.19380765794105825,0.19222979589877648
1715440486163463700,12.139463623046876,-0.5039315186679363,0.3496077298533171,0.3547219310618937
1715440486173513500,12.149513427734375,-0.987938439682126,0.5045779998779296,0.4621554469510913
1715440486183563500,12.1595634765625,-1.5025310530960558,0.6788396842192858,0.5501464496150612
1715440486193613600,12.169613525390625,-1.875882719695568,0.8285100942701101,0.5984898439582437
1715440486203663600,12.17966357421875,-2.203272845587134,0.9248726925034075,0.4938322225231677
1715440486213713400,12.18971337890625,-2.398444120031595,0.991579864924401,0.2885824024610221
1715440486223763500,12.199763427734375,-2.455034606781602,1.0684560377255081,0.030872126391995696
1715440486233812500,12.2098125,-2.4515771598041054,1.1830800496406852,-0.12045886468165554
1715440486243862800,12.21986279296875,-2.4958839190423485,1.3774341624833644,-0.09186736004012637
1715440486253912800,12.229912841796875,-2.5882711108386514,1.5471362107589839,-0.09419794927900657
1715440486263962600,12.239962646484376,-2.4526737228691577,1.4726821505382657,-0.31865835524033753
1715440486274013000,12.250012939453125,-1.9287211604356764,1.2009240416280924,-0.6240241712525486
1715440486284063000,12.26006298828125,-1.052435754033923,0.7989888162314891,-0.8220587261736393
1715440486294113000,12.270113037109375,-0.13552841438651084,0.392795677662082,-0.8424322366386652
1715440486304162800,12.280162841796875,0.6290034209698439,0.027371552658826112,-0.7473022489402442
1715440486314212900,12.290212890625,1.285657065409422,-0.37228622932508587,-0.7579029187358916
1715440486324263000,12.300262939453125,1.7660241686165332,-0.6997333461008965,-0.8303064031023532
1715440486334311700,12.310311767578124,2.0550901168107987,-0.8875203555129468,-0.8331940143026411
1715440486344361700,12.32036181640625,2.1979957819670437,-0.9194966254882514,-0.6676274583965539
1715440486354411800,12.330411865234375,2.0612001241236926,-0.6987371746703982,-0.2224927226175554
1715440486364461800,12.3404619140625,1.3912170425117014,-0.22314203510545194,0.30642515233941375
1715440486374511600,12.35051171875,0.4661784188568592,0.3110403910499066,0.7076199346322566
1715440486384561700,12.360561767578124,-0.4116226528048515,0.755793525366485,0.8316520455576479
1715440486394611700,12.37061181640625,-1.1694622970461845,1.0521311450641602,0.7876704996857792
1715440486404662000,12.380662109375,-1.6524685165852306,1.1392856238387525,0.6476928508054465
1715440486414711800,12.3907119140625,-1.7469821990162133,1.0791681320063768,0.4841209758479148
1715440486424761900,12.400761962890625,-1.369475750824809,0.9265162219267338,0.32924061259645965
1715440486434811000,12.410810791015624,-0.7064554939627647,0.6702608756400644,0.3108016138579696
1715440486444861000,12.42086083984375,-0.061090720778703686,0.4119972217382863,0.3709115799710154
1715440486454910700,12.43091064453125,0.4549281260460615,0.2208830041322857,0.49576688038017597
1715440486464960800,12.440960693359376,0.919591464164853,0.05499620329588651,0.6239830355245619
1715440486475010800,12.4510107421875,1.3989122731894255,-0.10614807918854058,0.6988608010500669
1715440486485060900,12.461060791015624,1.9081828147977589,-0.2951591139702126,0.6377711031846701
1715440486495110700,12.471110595703125,2.1998463782697915,-0.493619529620558,0.5001788150709122
1715440486505160700,12.48116064453125,2.3569401432543993,-0.721274292910099,0.3362429291065782
1715440486515210800,12.491210693359376,2.5148826340228316,-0.9452917226105928,0.26311536824926735
1715440486525260800,12.5012607421875,2.5644161879986522,-1.094102593222633,0.26659959363583474
1715440486535309800,12.511309814453124,2.3212644342392683,-1.2004625615961848,0.37010219981689
1715440486545360000,12.52135986328125,1.9395365689605473,-1.176080619207397,0.5710573548924177
